<?xml version="1.0" encoding="ISO-8859-1" ?>
  <?xml-stylesheet type="text/xsl" href="define2-0-0.xsl"?>
    <!-- ************************************************************* -->
    <!-- File: define.xml                                              -->
    <!-- Date: 21August2022                                                   -->
    <!-- Description: Define.xml file for oGvHD-2-SC                       -->
    <!-- Created by the defineR package                                -->
    <!-- ************************************************************* -->
    <ODM
  xmlns="http://www.cdisc.org/ns/odm/v1.3"
  xmlns:xlink="http://www.w3.org/1999/xlink"
  xmlns:def="http://www.cdisc.org/ns/def/v2.0"
  ODMVersion="1.3.2"
  FileOID="oGvHD-2-SC"
  FileType="Snapshot"
  CreationDateTime="2022-08-21T08:33:22">
    <Study OID="oGvHD-2-SC">
    <GlobalVariables>
    <StudyName>oGvHD-2-SC</StudyName>
    <StudyDescription>A PHASE II/III TRIAL OF SAFETY AND EFFICACY OF PRO-OCULAR™ 1% IN DAILY SCLERAL LENS WEARING PATIENTS WITH OCULAR GRAFT-VERSUS-HOST DISEASE</StudyDescription>
    <ProtocolName>oGvHD-2-SC</ProtocolName>
    </GlobalVariables>
    <MetaDataVersion OID="CDISC.ADaM-IG.1.0"
  Name="oGvHD-2-SC, ADaM Data Definitions"
  Description="oGvHD-2-SC, ADaM Data Definitions"
  def:DefineVersion="2.0.0"
  def:StandardName="ADaM-IG"
  def:StandardVersion="1.1">

  <!-- ******************************************* -->
  <!-- VALUE LEVEL LIST DEFINITION INFORMATION  ** -->
  <!-- ******************************************* -->

<def:ValueListDef OID="VL.ADEF.AVAL">
<ItemRef ItemOID="VL.ADEF.AVAL.XPPAIN"
  OrderNumber="1"
  Mandatory="No">
  
</ItemRef>
 </def:ValueListDef>

<def:ValueListDef OID="VL.ADTTE.AVAL">
<ItemRef ItemOID="VL.ADTTE.AVAL.TTPNRELF"
  OrderNumber="1"
  Mandatory="No">
  MethodOID="TTPNRELF">

</ItemRef>
 </def:ValueListDef>

<def:ValueListDef OID="VL.ADTTE.CNSR">
<ItemRef ItemOID="VL.ADTTE.CNSR.TTPNRELF"
  OrderNumber="1"
  Mandatory="No">
  MethodOID="TTPNRELF.CNSR">

</ItemRef>
 </def:ValueListDef>

<def:ValueListDef OID="VL.ADEF.CRIT1">
<ItemRef ItemOID="VL.ADEF.CRIT1.XPPAIN"
  OrderNumber="1"
  Mandatory="No">
  
</ItemRef>
 </def:ValueListDef>

<def:ValueListDef OID="VL.ADEF.CRIT1FL">
<ItemRef ItemOID="VL.ADEF.CRIT1FL.XPPAIN"
  OrderNumber="1"
  Mandatory="No">
  MethodOID="RESPONDER">

</ItemRef>
 </def:ValueListDef>

<def:ValueListDef OID="VL.ADTTE.EVNTDESC">
<ItemRef ItemOID="VL.ADTTE.EVNTDESC.XPPAIN"
  OrderNumber="1"
  Mandatory="No">
  MethodOID="TTPNRELF.EVNTDESC">

</ItemRef>
 </def:ValueListDef>

<!-- ******************************************* -->
<!-- ADAE             ItemGroupDef INFORMATION *** -->
<!-- ******************************************* -->
<ItemGroupDef OID="ADAE"
Domain="ADAE"
Name="ADAE"
Repeating="Yes"
Purpose="Analysis"
IsReferenceData="No"
SASDatasetName="ADAE"
def:Structure="ADAE - One record per event per subject"
def:Class="Occurrence data structure"
def:CommentOID="COM.ADAE"
def:ArchiveLocationID="Location.ADAE">
<Description>
  <TranslatedText xml:lang="en">Adverse Events Analysis Datasets</TranslatedText>
</Description>
<ItemRef ItemOID="ADAE.STUDYID"
OrderNumber="1"
Mandatory="Yes"
KeySequence="1"
/>
<ItemRef ItemOID="ADAE.USUBJID"
OrderNumber="2"
Mandatory="Yes"
KeySequence="2"
/>
<ItemRef ItemOID="ADAE.SITEID"
OrderNumber="3"
Mandatory="Yes"
/>
<ItemRef ItemOID="ADAE.COUNTRY"
OrderNumber="4"
Mandatory="Yes"
/>
<ItemRef ItemOID="ADAE.AESEQ"
OrderNumber="5"
Mandatory="Yes"
/>
<ItemRef ItemOID="ADAE.AGE"
OrderNumber="6"
Mandatory="Yes"
/>
<ItemRef ItemOID="ADAE.AGEGR1N"
OrderNumber="7"
Mandatory="Yes"
MethodOID="COMP.SEECODELIST"
/>
<ItemRef ItemOID="ADAE.AGEGR1"
OrderNumber="8"
Mandatory="Yes"
MethodOID="AGEGR1"
/>
<ItemRef ItemOID="ADAE.SEX"
OrderNumber="9"
Mandatory="Yes"
/>
<ItemRef ItemOID="ADAE.TRTAN"
OrderNumber="10"
Mandatory="Yes"
/>
<ItemRef ItemOID="ADAE.TRTA"
OrderNumber="11"
Mandatory="No"
/>
<ItemRef ItemOID="ADAE.AETERM"
OrderNumber="12"
Mandatory="Yes"
/>
<ItemRef ItemOID="ADAE.AEDECOD"
OrderNumber="13"
Mandatory="Yes"
KeySequence="4"
/>
<ItemRef ItemOID="ADAE.AEBODSYS"
OrderNumber="14"
Mandatory="Yes"
/>
<ItemRef ItemOID="ADAE.ASTDT"
OrderNumber="15"
Mandatory="Yes"
KeySequence="3"
MethodOID="ADAE.ASTDT"
/>
<ItemRef ItemOID="ADAE.AENDT"
OrderNumber="16"
Mandatory="Yes"
MethodOID="ADAE.AENDT"
/>
<ItemRef ItemOID="ADAE.ASTDY"
OrderNumber="17"
Mandatory="No"
MethodOID="ADAE.ASTDY"
/>
<ItemRef ItemOID="ADAE.AENDY"
OrderNumber="18"
Mandatory="No"
MethodOID="ADAE.AENDY"
/>
<ItemRef ItemOID="ADAE.AESEV"
OrderNumber="19"
Mandatory="No"
/>
<ItemRef ItemOID="ADAE.AESEVN"
OrderNumber="20"
Mandatory="No"
MethodOID="COMP.SEECODELIST"
/>
<ItemRef ItemOID="ADAE.AESER"
OrderNumber="21"
Mandatory="No"
/>
<ItemRef ItemOID="ADAE.AEACN"
OrderNumber="22"
Mandatory="No"
/>
<ItemRef ItemOID="ADAE.AEREL"
OrderNumber="23"
Mandatory="No"
/>
<ItemRef ItemOID="ADAE.AERELN"
OrderNumber="24"
Mandatory="No"
MethodOID="COMP.SEECODELIST"
/>
<ItemRef ItemOID="ADAE.CQ01NAM"
OrderNumber="25"
Mandatory="No"
MethodOID="COMP.CQ01NAME"
/>
<ItemRef ItemOID="ADAE.RELGR1"
OrderNumber="26"
Mandatory="No"
MethodOID="RELGR1"
/>
<ItemRef ItemOID="ADAE.RELGR1N"
OrderNumber="27"
Mandatory="No"
MethodOID="COMP.SEECODELIST"
/>
<ItemRef ItemOID="ADAE.TRTEMFL"
OrderNumber="28"
Mandatory="No"
/>
<ItemRef ItemOID="ADAE.SAFFL"
OrderNumber="29"
Mandatory="No"
/>
 <!-- **************************************************** -->
      <!-- def:leaf details for hypertext linking the dataset   -->
      <!-- **************************************************** -->
<def:leaf ID="Location.ADAE" xlink:href="ADAE.xpt">
    <def:title>ADAE.xpt </def:title>
  </def:leaf>
</ItemGroupDef>
<!-- ******************************************* -->
<!-- ADCM             ItemGroupDef INFORMATION *** -->
<!-- ******************************************* -->
<ItemGroupDef OID="ADCM"
Domain="ADCM"
Name="ADCM"
Repeating="Yes"
Purpose="Analysis"
IsReferenceData="No"
SASDatasetName="ADCM"
def:Structure="ADCM - One record per event per subject"
def:Class="Occurrence data structure"
def:CommentOID="COM.ADCM"
def:ArchiveLocationID="Location.ADCM">
<Description>
  <TranslatedText xml:lang="en">Concomitant Medication Analysis Dataset</TranslatedText>
</Description>
 <!-- **************************************************** -->
      <!-- def:leaf details for hypertext linking the dataset   -->
      <!-- **************************************************** -->
<def:leaf ID="Location.ADCM" xlink:href="ADCM.xpt">
    <def:title>ADCM.xpt </def:title>
  </def:leaf>
</ItemGroupDef>
<!-- ******************************************* -->
<!-- ADMH             ItemGroupDef INFORMATION *** -->
<!-- ******************************************* -->
<ItemGroupDef OID="ADMH"
Domain="ADMH"
Name="ADMH"
Repeating="Yes"
Purpose="Analysis"
IsReferenceData="No"
SASDatasetName="ADMH"
def:Structure="ADMH - One record per event per subject"
def:Class="Occurrence data structure"
def:CommentOID="COM.ADMH"
def:ArchiveLocationID="Location.ADMH">
<Description>
  <TranslatedText xml:lang="en">Medical History  Analysis Dataset</TranslatedText>
</Description>
 <!-- **************************************************** -->
      <!-- def:leaf details for hypertext linking the dataset   -->
      <!-- **************************************************** -->
<def:leaf ID="Location.ADMH" xlink:href="ADMH.xpt">
    <def:title>ADMH.xpt </def:title>
  </def:leaf>
</ItemGroupDef>
<!-- ******************************************* -->
<!-- ADEX             ItemGroupDef INFORMATION *** -->
<!-- ******************************************* -->
<ItemGroupDef OID="ADEX"
Domain="ADEX"
Name="ADEX"
Repeating="Yes"
Purpose="Analysis"
IsReferenceData="No"
SASDatasetName="ADEX"
def:Structure="ADEX - One record per event per subject"
def:Class="Occurrence data structure"
def:CommentOID="COM.ADCM"
def:ArchiveLocationID="Location.ADEX">
<Description>
  <TranslatedText xml:lang="en">Exposure Analysis Dataset</TranslatedText>
</Description>
 <!-- **************************************************** -->
      <!-- def:leaf details for hypertext linking the dataset   -->
      <!-- **************************************************** -->
<def:leaf ID="Location.ADEX" xlink:href="ADCM.xpt">
    <def:title>ADCM.xpt </def:title>
  </def:leaf>
</ItemGroupDef>
<!-- ******************************************* -->
<!-- ADDS             ItemGroupDef INFORMATION *** -->
<!-- ******************************************* -->
<ItemGroupDef OID="ADDS"
Domain="ADDS"
Name="ADDS"
Repeating="Yes"
Purpose="Analysis"
IsReferenceData="No"
SASDatasetName="ADDS"
def:Structure="ADCM - One record per event per subject"
def:Class="Occurrence data structure"
def:CommentOID="COM.ADCM"
def:ArchiveLocationID="Location.ADDS">
<Description>
  <TranslatedText xml:lang="en">Concomitant Medication Intervention Analysis</TranslatedText>
</Description>
 <!-- **************************************************** -->
      <!-- def:leaf details for hypertext linking the dataset   -->
      <!-- **************************************************** -->
<def:leaf ID="Location.ADDS" xlink:href="ADCM.xpt">
    <def:title>ADCM.xpt </def:title>
  </def:leaf>
</ItemGroupDef>
<!-- ******************************************* -->
<!-- ADSL             ItemGroupDef INFORMATION *** -->
<!-- ******************************************* -->
<ItemGroupDef OID="ADSL"
Domain="ADSL"
Name="ADSL"
Repeating="No"
Purpose="Analysis"
IsReferenceData="No"
SASDatasetName="ADSL"
def:Structure="ADSL - One record per subject"
def:Class="Subject level analysis dataset"
def:CommentOID="COM.ADSL"
def:ArchiveLocationID="Location.ADSL">
<Description>
  <TranslatedText xml:lang="en">Subject Level Analysis Dataset</TranslatedText>
</Description>
<ItemRef ItemOID="ADSL.STUDYID"
OrderNumber="1"
Mandatory="Yes"
KeySequence="1"
/>
<ItemRef ItemOID="ADSL.USUBJID"
OrderNumber="2"
Mandatory="Yes"
KeySequence="2"
/>
<ItemRef ItemOID="ADSL.SUBJID"
OrderNumber="3"
Mandatory="Yes"
/>
<ItemRef ItemOID="ADSL.SITEID"
OrderNumber="4"
Mandatory="Yes"
/>
<ItemRef ItemOID="ADSL.COUNTRY"
OrderNumber="5"
Mandatory="Yes"
/>
<ItemRef ItemOID="ADSL.BRTHDT"
OrderNumber="6"
Mandatory="No"
/>
<ItemRef ItemOID="ADSL.AGE"
OrderNumber="7"
Mandatory="Yes"
/>
<ItemRef ItemOID="ADSL.AGEU"
OrderNumber="8"
Mandatory="Yes"
/>
<ItemRef ItemOID="ADSL.AGEGR1"
OrderNumber="9"
Mandatory="No"
MethodOID="AGEGR1"
/>
<ItemRef ItemOID="ADSL.AGEGR1N"
OrderNumber="10"
Mandatory="No"
MethodOID="COMP.SEECODELIST"
/>
<ItemRef ItemOID="ADSL.SEX"
OrderNumber="11"
Mandatory="Yes"
/>
<ItemRef ItemOID="ADSL.RACE"
OrderNumber="12"
Mandatory="Yes"
/>
<ItemRef ItemOID="ADSL.RACEOTH"
OrderNumber="13"
Mandatory="No"
/>
<ItemRef ItemOID="ADSL.RANDDT"
OrderNumber="14"
Mandatory="No"
MethodOID="RANDDT"
/>
<ItemRef ItemOID="ADSL.TRTSDT"
OrderNumber="15"
Mandatory="Yes"
MethodOID="TRTSDT"
/>
<ItemRef ItemOID="ADSL.TRTEDT"
OrderNumber="16"
Mandatory="Yes"
MethodOID="TRTEDT"
/>
<ItemRef ItemOID="ADSL.ARM"
OrderNumber="17"
Mandatory="Yes"
/>
<ItemRef ItemOID="ADSL.TRT01P"
OrderNumber="18"
Mandatory="Yes"
/>
<ItemRef ItemOID="ADSL.TRT01A"
OrderNumber="19"
Mandatory="Yes"
/>
<ItemRef ItemOID="ADSL.TRT01PN"
OrderNumber="20"
Mandatory="No"
MethodOID="COMP.SEECODELIST"
/>
<ItemRef ItemOID="ADSL.TRT01AN"
OrderNumber="21"
Mandatory="No"
MethodOID="COMP.SEECODELIST"
/>
<ItemRef ItemOID="ADSL.ITTFL"
OrderNumber="22"
Mandatory="No"
MethodOID="ITTFL"
/>
<ItemRef ItemOID="ADSL.SAFFL"
OrderNumber="23"
Mandatory="No"
MethodOID="SAFFL"
/>
<ItemRef ItemOID="ADSL.RESPFL"
OrderNumber="24"
Mandatory="No"
MethodOID="RESPFL"
/>
 <!-- **************************************************** -->
      <!-- def:leaf details for hypertext linking the dataset   -->
      <!-- **************************************************** -->
<def:leaf ID="Location.ADSL" xlink:href="ADSL.xpt">
    <def:title>ADSL.xpt </def:title>
  </def:leaf>
</ItemGroupDef>
<!-- ******************************************* -->
<!-- ADEF             ItemGroupDef INFORMATION *** -->
<!-- ******************************************* -->
<ItemGroupDef OID="ADEF"
Domain="ADEF"
Name="ADEF"
Repeating="Yes"
Purpose="Analysis"
IsReferenceData="No"
SASDatasetName="ADEF"
def:Structure="One record per subject per visit"
def:Class="Basic data structure"
def:CommentOID="COM.ADEF"
def:ArchiveLocationID="Location.ADEF">
<Description>
  <TranslatedText xml:lang="en">Efficacy Scores Analysis Dataset</TranslatedText>
</Description>
<ItemRef ItemOID="ADEF.STUDYID"
OrderNumber="1"
Mandatory="Yes"
KeySequence="1"
/>
<ItemRef ItemOID="ADEF.USUBJID"
OrderNumber="2"
Mandatory="Yes"
KeySequence="2"
/>
<ItemRef ItemOID="ADEF.SITEID"
OrderNumber="3"
Mandatory="Yes"
/>
<ItemRef ItemOID="ADEF.COUNTRY"
OrderNumber="4"
Mandatory="Yes"
/>
<ItemRef ItemOID="ADEF.RANDDT"
OrderNumber="5"
Mandatory="No"
/>
<ItemRef ItemOID="ADEF.AGE"
OrderNumber="6"
Mandatory="Yes"
/>
<ItemRef ItemOID="ADEF.AGEGR1N"
OrderNumber="7"
Mandatory="Yes"
MethodOID="COMP.SEECODELIST"
/>
<ItemRef ItemOID="ADEF.AGEGR1"
OrderNumber="8"
Mandatory="Yes"
MethodOID="AGEGR1"
/>
<ItemRef ItemOID="ADEF.SEX"
OrderNumber="9"
Mandatory="Yes"
/>
<ItemRef ItemOID="ADEF.RACE"
OrderNumber="10"
Mandatory="Yes"
/>
<ItemRef ItemOID="ADEF.TRTPN"
OrderNumber="11"
Mandatory="Yes"
/>
<ItemRef ItemOID="ADEF.TRTP"
OrderNumber="13"
Mandatory="No"
MethodOID="TRTP"
/>
<ItemRef ItemOID="ADEF.PARAMCD"
OrderNumber="14"
Mandatory="No"
KeySequence="3"
/>
<ItemRef ItemOID="ADEF.PARAM"
OrderNumber="15"
Mandatory="No"
/>
<ItemRef ItemOID="ADEF.AVISIT"
OrderNumber="16"
Mandatory="No"
/>
<ItemRef ItemOID="ADEF.AVISITN"
OrderNumber="17"
Mandatory="No"
KeySequence="4"
MethodOID="COMP.SEECODELIST"
/>
<ItemRef ItemOID="ADEF.ABLFL"
OrderNumber="18"
Mandatory="No"
MethodOID="ABLFL"
/>
<ItemRef ItemOID="ADEF.XPSEQ"
OrderNumber="19"
Mandatory="No"
/>
<ItemRef ItemOID="ADEF.VISITNUM"
OrderNumber="20"
Mandatory="No"
/>
<ItemRef ItemOID="ADEF.ADT"
OrderNumber="21"
Mandatory="No"
KeySequence="5"
MethodOID="ADT"
/>
<ItemRef ItemOID="ADEF.ADY"
OrderNumber="22"
Mandatory="No"
MethodOID="ADY"
/>
<ItemRef ItemOID="ADEF.AVAL"
OrderNumber="23"
Mandatory="No"
MethodOID="COMP.SEEVALUELEVEL"
/>
<ItemRef ItemOID="ADEF.AVALC"
OrderNumber="24"
Mandatory="No"
MethodOID="COMP.SEEVALUELEVEL"
/>
<ItemRef ItemOID="ADEF.BASE"
OrderNumber="25"
Mandatory="No"
MethodOID="BASE"
/>
<ItemRef ItemOID="ADEF.CHG"
OrderNumber="27"
Mandatory="No"
MethodOID="CHANGEFROMBASELINE"
/>
<ItemRef ItemOID="ADEF.CRIT1FL"
OrderNumber="28"
Mandatory="No"
MethodOID="COMP.SEEVALUELEVEL"
/>
<ItemRef ItemOID="ADEF.CRIT1"
OrderNumber="29"
Mandatory="No"
MethodOID="COMP.SEEVALUELEVEL"
/>
<ItemRef ItemOID="ADEF.ITTFL"
OrderNumber="30"
Mandatory="No"
/>
 <!-- **************************************************** -->
      <!-- def:leaf details for hypertext linking the dataset   -->
      <!-- **************************************************** -->
<def:leaf ID="Location.ADEF" xlink:href="ADEF.xpt">
    <def:title>ADEF.xpt </def:title>
  </def:leaf>
</ItemGroupDef>
<!-- ******************************************* -->
<!-- ADTTE             ItemGroupDef INFORMATION *** -->
<!-- ******************************************* -->
<ItemGroupDef OID="ADTTE"
Domain="ADTTE"
Name="ADTTE"
Repeating="No"
Purpose="Analysis"
IsReferenceData="No"
SASDatasetName="ADTTE"
def:Structure="One record per subject"
def:Class="Basic data structure"
def:CommentOID="COM.ADTTE"
def:ArchiveLocationID="Location.ADTTE">
<Description>
  <TranslatedText xml:lang="en">Time-to-Safety Endpoint Analysis Dataset</TranslatedText>
</Description>
<ItemRef ItemOID="ADTTE.STUDYID"
OrderNumber="1"
Mandatory="Yes"
KeySequence="1"
/>
<ItemRef ItemOID="ADTTE.USUBJID"
OrderNumber="2"
Mandatory="Yes"
KeySequence="2"
/>
<ItemRef ItemOID="ADTTE.SITEID"
OrderNumber="3"
Mandatory="Yes"
/>
<ItemRef ItemOID="ADTTE.COUNTRY"
OrderNumber="4"
Mandatory="Yes"
/>
<ItemRef ItemOID="ADTTE.AGE"
OrderNumber="5"
Mandatory="Yes"
/>
<ItemRef ItemOID="ADTTE.AGEGR1N"
OrderNumber="6"
Mandatory="Yes"
MethodOID="COMP.SEECODELIST"
/>
<ItemRef ItemOID="ADTTE.AGEGR1"
OrderNumber="7"
Mandatory="Yes"
MethodOID="AGEGR1"
/>
<ItemRef ItemOID="ADTTE.SEX"
OrderNumber="8"
Mandatory="Yes"
/>
<ItemRef ItemOID="ADTTE.RACE"
OrderNumber="9"
Mandatory="Yes"
/>
<ItemRef ItemOID="ADTTE.TRTPN"
OrderNumber="10"
Mandatory="Yes"
/>
<ItemRef ItemOID="ADTTE.TRTP"
OrderNumber="11"
Mandatory="No"
/>
<ItemRef ItemOID="ADTTE.PARAMCD"
OrderNumber="12"
Mandatory="No"
KeySequence="3"
/>
<ItemRef ItemOID="ADTTE.PARAM"
OrderNumber="13"
Mandatory="No"
/>
<ItemRef ItemOID="ADTTE.ADT"
OrderNumber="14"
Mandatory="No"
/>
<ItemRef ItemOID="ADTTE.STARTDT"
OrderNumber="15"
Mandatory="No"
/>
<ItemRef ItemOID="ADTTE.AVAL"
OrderNumber="16"
Mandatory="Yes"
MethodOID="COMP.SEEVALUELEVEL"
/>
<ItemRef ItemOID="ADTTE.CNSR"
OrderNumber="17"
Mandatory="Yes"
MethodOID="COMP.SEEVALUELEVEL"
/>
<ItemRef ItemOID="ADTTE.EVNTDESC"
OrderNumber="18"
Mandatory="No"
MethodOID="COMP.SEEVALUELEVEL"
/>
<ItemRef ItemOID="ADTTE.SRCDOM"
OrderNumber="19"
Mandatory="No"
MethodOID="ADTTE.SRCDOM"
/>
<ItemRef ItemOID="ADTTE.SRCVAR"
OrderNumber="20"
Mandatory="No"
MethodOID="ADTTE.SRCVAR"
/>
<ItemRef ItemOID="ADTTE.SRCSEQ"
OrderNumber="21"
Mandatory="No"
MethodOID="ADTTE.SRCSEQ"
/>
<ItemRef ItemOID="ADTTE.ITTFL"
OrderNumber="22"
Mandatory="No"
/>
 <!-- **************************************************** -->
      <!-- def:leaf details for hypertext linking the dataset   -->
      <!-- **************************************************** -->
<def:leaf ID="Location.ADTTE" xlink:href="ADTTE.xpt">
    <def:title>ADTTE.xpt </def:title>
  </def:leaf>
</ItemGroupDef>
<!-- ************************************************************ -->
  <!-- The details of each variable is here for all domains         -->
  <!-- ************************************************************ -->
<ItemDef OID="ADSL.STUDYID"
  Name="STUDYID"
  SASFieldName="STUDYID"
  DataType="text"
  Length="15"
  def:DisplayFormat="15"
  >
  <Description>
      <TranslatedText xml:lang="en">Study Identifier</TranslatedText>
  </Description>
  <def:Origin Type="Predecessor">
    <Description>
  <TranslatedText xml:lang="en">DM</TranslatedText>
</Description>
  </def:Origin>
</ItemDef>
<ItemDef OID="ADSL.USUBJID"
  Name="USUBJID"
  SASFieldName="USUBJID"
  DataType="text"
  Length="25"
  def:DisplayFormat="25"
  >
  <Description>
      <TranslatedText xml:lang="en">Unique Subject Identifier</TranslatedText>
  </Description>
  <def:Origin Type="Predecessor">
    <Description>
  <TranslatedText xml:lang="en">DM</TranslatedText>
</Description>
  </def:Origin>
</ItemDef>
<ItemDef OID="ADSL.SUBJID"
  Name="SUBJID"
  SASFieldName="SUBJID"
  DataType="text"
  Length="7"
  def:DisplayFormat="7"
  >
  <Description>
      <TranslatedText xml:lang="en">Subject Identifier for the Study</TranslatedText>
  </Description>
  <def:Origin Type="Predecessor">
    <Description>
  <TranslatedText xml:lang="en">DM</TranslatedText>
</Description>
  </def:Origin>
</ItemDef>
<ItemDef OID="ADSL.SITEID"
  Name="SITEID"
  SASFieldName="SITEID"
  DataType="text"
  Length="7"
  def:DisplayFormat="7"
  >
  <Description>
      <TranslatedText xml:lang="en">Study Site Identifier</TranslatedText>
  </Description>
  <def:Origin Type="Predecessor">
    <Description>
  <TranslatedText xml:lang="en">DM</TranslatedText>
</Description>
  </def:Origin>
</ItemDef>
<ItemDef OID="ADSL.COUNTRY"
  Name="COUNTRY"
  SASFieldName="COUNTRY"
  DataType="text"
  Length="3"
  def:DisplayFormat="3"
  >
  <Description>
      <TranslatedText xml:lang="en">Country</TranslatedText>
  </Description>
  <CodeListRef CodeListOID="CodeList.COUNTRY"/><def:Origin Type="Predecessor">
    <Description>
  <TranslatedText xml:lang="en">DM</TranslatedText>
</Description>
  </def:Origin>
</ItemDef>
<ItemDef OID="ADSL.BRTHDT"
  Name="BRTHDT"
  SASFieldName="BRTHDT"
  DataType="integer"
  Length="8"
  def:DisplayFormat="8"
  >
  <Description>
      <TranslatedText xml:lang="en">Date of Birth</TranslatedText>
  </Description>
  <def:Origin Type="Predecessor">
    <Description>
  <TranslatedText xml:lang="en">DM.BIRTHDTC</TranslatedText>
</Description>
  </def:Origin>
</ItemDef>
<ItemDef OID="ADSL.AGE"
  Name="AGE"
  SASFieldName="AGE"
  DataType="integer"
  Length="8"
  def:DisplayFormat="3.0"
  >
  <Description>
      <TranslatedText xml:lang="en">Age</TranslatedText>
  </Description>
  <def:Origin Type="Predecessor">
    <Description>
  <TranslatedText xml:lang="en">DM</TranslatedText>
</Description>
  </def:Origin>
</ItemDef>
<ItemDef OID="ADSL.AGEU"
  Name="AGEU"
  SASFieldName="AGEU"
  DataType="text"
  Length="5"
  def:DisplayFormat="5"
  >
  <Description>
      <TranslatedText xml:lang="en">Age Units</TranslatedText>
  </Description>
  <CodeListRef CodeListOID="CodeList.AGEU"/><def:Origin Type="Predecessor">
    <Description>
  <TranslatedText xml:lang="en">DM</TranslatedText>
</Description>
  </def:Origin>
</ItemDef>
<ItemDef OID="ADSL.AGEGR1"
  Name="AGEGR1"
  SASFieldName="AGEGR1"
  DataType="text"
  Length="40"
  def:DisplayFormat="40"
  >
  <Description>
      <TranslatedText xml:lang="en">Pooled Age Group 1</TranslatedText>
  </Description>
  <CodeListRef CodeListOID="CodeList.AGEGR1"/><def:Origin Type="Derived">
    
  </def:Origin>
</ItemDef>
<ItemDef OID="ADSL.AGEGR1N"
  Name="AGEGR1N"
  SASFieldName="AGEGR1N"
  DataType="integer"
  Length="8"
  def:DisplayFormat="8"
  >
  <Description>
      <TranslatedText xml:lang="en">Pooled Age Group 1 (N)</TranslatedText>
  </Description>
  <CodeListRef CodeListOID="CodeList.AGEGR1N"/><def:Origin Type="Derived">
    
  </def:Origin>
</ItemDef>
<ItemDef OID="ADSL.SEX"
  Name="SEX"
  SASFieldName="SEX"
  DataType="text"
  Length="1"
  def:DisplayFormat="1"
  >
  <Description>
      <TranslatedText xml:lang="en">Sex</TranslatedText>
  </Description>
  <CodeListRef CodeListOID="CodeList.SEX"/><def:Origin Type="Predecessor">
    <Description>
  <TranslatedText xml:lang="en">DM</TranslatedText>
</Description>
  </def:Origin>
</ItemDef>
<ItemDef OID="ADSL.RACE"
  Name="RACE"
  SASFieldName="RACE"
  DataType="text"
  Length="40"
  def:DisplayFormat="40"
  >
  <Description>
      <TranslatedText xml:lang="en">Race</TranslatedText>
  </Description>
  <CodeListRef CodeListOID="CodeList.RACE"/><def:Origin Type="Predecessor">
    <Description>
  <TranslatedText xml:lang="en">DM</TranslatedText>
</Description>
  </def:Origin>
</ItemDef>
<ItemDef OID="ADSL.RACEOTH"
  Name="RACEOTH"
  SASFieldName="RACEOTH"
  DataType="text"
  Length="40"
  def:DisplayFormat="40"
  >
  <Description>
      <TranslatedText xml:lang="en">Race, Other, Specify</TranslatedText>
  </Description>
  <def:Origin Type="Predecessor">
    <Description>
  <TranslatedText xml:lang="en">DM</TranslatedText>
</Description>
  </def:Origin>
</ItemDef>
<ItemDef OID="ADSL.RANDDT"
  Name="RANDDT"
  SASFieldName="RANDDT"
  DataType="integer"
  Length="8"
  def:DisplayFormat="8"
  >
  <Description>
      <TranslatedText xml:lang="en">Date of Randomization</TranslatedText>
  </Description>
  <def:Origin Type="Derived">
    
  </def:Origin>
</ItemDef>
<ItemDef OID="ADSL.TRTSDT"
  Name="TRTSDT"
  SASFieldName="TRTSDT"
  DataType="integer"
  Length="8"
  def:DisplayFormat="8"
  >
  <Description>
      <TranslatedText xml:lang="en">Date of First Exposure to Treatment</TranslatedText>
  </Description>
  <def:Origin Type="Derived">
    
  </def:Origin>
</ItemDef>
<ItemDef OID="ADSL.TRTEDT"
  Name="TRTEDT"
  SASFieldName="TRTEDT"
  DataType="integer"
  Length="8"
  def:DisplayFormat="8"
  >
  <Description>
      <TranslatedText xml:lang="en">Date of Last Exposure to Treatment</TranslatedText>
  </Description>
  <def:Origin Type="Derived">
    
  </def:Origin>
</ItemDef>
<ItemDef OID="ADSL.ARM"
  Name="ARM"
  SASFieldName="ARM"
  DataType="text"
  Length="40"
  def:DisplayFormat="40"
  >
  <Description>
      <TranslatedText xml:lang="en">Description of Planned Arm</TranslatedText>
  </Description>
  <CodeListRef CodeListOID="CodeList.ARM"/><def:Origin Type="Predecessor">
    <Description>
  <TranslatedText xml:lang="en">DM</TranslatedText>
</Description>
  </def:Origin>
</ItemDef>
<ItemDef OID="ADSL.TRT01P"
  Name="TRT01P"
  SASFieldName="TRT01P"
  DataType="text"
  Length="40"
  def:DisplayFormat="40"
  >
  <Description>
      <TranslatedText xml:lang="en">Planned Treatment for Period 01</TranslatedText>
  </Description>
  <CodeListRef CodeListOID="CodeList.ARM"/><def:Origin Type="Predecessor">
    <Description>
  <TranslatedText xml:lang="en">DM.ARM</TranslatedText>
</Description>
  </def:Origin>
</ItemDef>
<ItemDef OID="ADSL.TRT01A"
  Name="TRT01A"
  SASFieldName="TRT01A"
  DataType="text"
  Length="40"
  def:DisplayFormat="40"
  >
  <Description>
      <TranslatedText xml:lang="en">Actual Treatment for Period 01</TranslatedText>
  </Description>
  <CodeListRef CodeListOID="CodeList.ARM"/><def:Origin Type="Predecessor">
    <Description>
  <TranslatedText xml:lang="en">DM.ARM</TranslatedText>
</Description>
  </def:Origin>
</ItemDef>
<ItemDef OID="ADSL.TRT01PN"
  Name="TRT01PN"
  SASFieldName="TRT01PN"
  DataType="integer"
  Length="8"
  def:DisplayFormat="8"
  >
  <Description>
      <TranslatedText xml:lang="en">Planned Treatment for Period 01 (N)</TranslatedText>
  </Description>
  <CodeListRef CodeListOID="CodeList.ARMN"/><def:Origin Type="Derived">
    
  </def:Origin>
</ItemDef>
<ItemDef OID="ADSL.TRT01AN"
  Name="TRT01AN"
  SASFieldName="TRT01AN"
  DataType="integer"
  Length="8"
  def:DisplayFormat="8"
  >
  <Description>
      <TranslatedText xml:lang="en">Actual Treatment for Period 01 (N)</TranslatedText>
  </Description>
  <CodeListRef CodeListOID="CodeList.ARMN"/><def:Origin Type="Derived">
    
  </def:Origin>
</ItemDef>
<ItemDef OID="ADSL.ITTFL"
  Name="ITTFL"
  SASFieldName="ITTFL"
  DataType="text"
  Length="1"
  def:DisplayFormat="1"
  >
  <Description>
      <TranslatedText xml:lang="en">Intent-To-Treat Population Flag</TranslatedText>
  </Description>
  <CodeListRef CodeListOID="CodeList.FLAGS"/><def:Origin Type="Derived">
    
  </def:Origin>
</ItemDef>
<ItemDef OID="ADSL.SAFFL"
  Name="SAFFL"
  SASFieldName="SAFFL"
  DataType="text"
  Length="1"
  def:DisplayFormat="1"
  >
  <Description>
      <TranslatedText xml:lang="en">Safety Population Flag</TranslatedText>
  </Description>
  <CodeListRef CodeListOID="CodeList.FLAGS"/><def:Origin Type="Derived">
    
  </def:Origin>
</ItemDef>
<ItemDef OID="ADSL.RESPFL"
  Name="RESPFL"
  SASFieldName="RESPFL"
  DataType="text"
  Length="1"
  def:DisplayFormat="1"
  >
  <Description>
      <TranslatedText xml:lang="en">Efficacy Responder Flag</TranslatedText>
  </Description>
  <CodeListRef CodeListOID="CodeList.YN"/><def:Origin Type="Derived">
    
  </def:Origin>
</ItemDef>
<ItemDef OID="ADEF.STUDYID"
  Name="STUDYID"
  SASFieldName="STUDYID"
  DataType="text"
  Length="15"
  def:DisplayFormat="15"
  >
  <Description>
      <TranslatedText xml:lang="en">Study Identifier</TranslatedText>
  </Description>
  <def:Origin Type="Predecessor">
    <Description>
  <TranslatedText xml:lang="en">ADSL</TranslatedText>
</Description>
  </def:Origin>
</ItemDef>
<ItemDef OID="ADEF.USUBJID"
  Name="USUBJID"
  SASFieldName="USUBJID"
  DataType="text"
  Length="25"
  def:DisplayFormat="25"
  >
  <Description>
      <TranslatedText xml:lang="en">Unique Subject Identifier</TranslatedText>
  </Description>
  <def:Origin Type="Predecessor">
    <Description>
  <TranslatedText xml:lang="en">ADSL</TranslatedText>
</Description>
  </def:Origin>
</ItemDef>
<ItemDef OID="ADEF.SITEID"
  Name="SITEID"
  SASFieldName="SITEID"
  DataType="text"
  Length="7"
  def:DisplayFormat="7"
  >
  <Description>
      <TranslatedText xml:lang="en">Study Site Identifier</TranslatedText>
  </Description>
  <def:Origin Type="Predecessor">
    <Description>
  <TranslatedText xml:lang="en">ADSL</TranslatedText>
</Description>
  </def:Origin>
</ItemDef>
<ItemDef OID="ADEF.COUNTRY"
  Name="COUNTRY"
  SASFieldName="COUNTRY"
  DataType="text"
  Length="3"
  def:DisplayFormat="3"
  >
  <Description>
      <TranslatedText xml:lang="en">Country</TranslatedText>
  </Description>
  <CodeListRef CodeListOID="CodeList.COUNTRY"/><def:Origin Type="Predecessor">
    <Description>
  <TranslatedText xml:lang="en">ADSL</TranslatedText>
</Description>
  </def:Origin>
</ItemDef>
<ItemDef OID="ADEF.RANDDT"
  Name="RANDDT"
  SASFieldName="RANDDT"
  DataType="integer"
  Length="8"
  def:DisplayFormat="date9."
  >
  <Description>
      <TranslatedText xml:lang="en">Date of Randomization</TranslatedText>
  </Description>
  <def:Origin Type="Predecessor">
    <Description>
  <TranslatedText xml:lang="en">ADSL</TranslatedText>
</Description>
  </def:Origin>
</ItemDef>
<ItemDef OID="ADEF.AGE"
  Name="AGE"
  SASFieldName="AGE"
  DataType="integer"
  Length="8"
  def:DisplayFormat="8"
  >
  <Description>
      <TranslatedText xml:lang="en">Age</TranslatedText>
  </Description>
  <def:Origin Type="Predecessor">
    <Description>
  <TranslatedText xml:lang="en">ADSL</TranslatedText>
</Description>
  </def:Origin>
</ItemDef>
<ItemDef OID="ADEF.AGEGR1N"
  Name="AGEGR1N"
  SASFieldName="AGEGR1N"
  DataType="integer"
  Length="8"
  def:DisplayFormat="8"
  >
  <Description>
      <TranslatedText xml:lang="en">Pooled Age Group 1 (N)</TranslatedText>
  </Description>
  <CodeListRef CodeListOID="CodeList.AGEGR1N"/><def:Origin Type="Predecessor">
    <Description>
  <TranslatedText xml:lang="en">ADSL</TranslatedText>
</Description>
  </def:Origin>
</ItemDef>
<ItemDef OID="ADEF.AGEGR1"
  Name="AGEGR1"
  SASFieldName="AGEGR1"
  DataType="text"
  Length="20"
  def:DisplayFormat="20"
  >
  <Description>
      <TranslatedText xml:lang="en">Pooled Age Group 1</TranslatedText>
  </Description>
  <CodeListRef CodeListOID="CodeList.AGEGR1"/><def:Origin Type="Predecessor">
    <Description>
  <TranslatedText xml:lang="en">ADSL</TranslatedText>
</Description>
  </def:Origin>
</ItemDef>
<ItemDef OID="ADEF.SEX"
  Name="SEX"
  SASFieldName="SEX"
  DataType="text"
  Length="1"
  def:DisplayFormat="1"
  >
  <Description>
      <TranslatedText xml:lang="en">Sex</TranslatedText>
  </Description>
  <CodeListRef CodeListOID="CodeList.SEX"/><def:Origin Type="Predecessor">
    <Description>
  <TranslatedText xml:lang="en">ADSL</TranslatedText>
</Description>
  </def:Origin>
</ItemDef>
<ItemDef OID="ADEF.RACE"
  Name="RACE"
  SASFieldName="RACE"
  DataType="text"
  Length="40"
  def:DisplayFormat="40"
  >
  <Description>
      <TranslatedText xml:lang="en">Race</TranslatedText>
  </Description>
  <CodeListRef CodeListOID="CodeList.RACE"/><def:Origin Type="Predecessor">
    <Description>
  <TranslatedText xml:lang="en">ADSL</TranslatedText>
</Description>
  </def:Origin>
</ItemDef>
<ItemDef OID="ADEF.TRTPN"
  Name="TRTPN"
  SASFieldName="TRTPN"
  DataType="integer"
  Length="8"
  def:DisplayFormat="8"
  >
  <Description>
      <TranslatedText xml:lang="en">Planned Treatment (N)</TranslatedText>
  </Description>
  <CodeListRef CodeListOID="CodeList.ARMN"/><def:Origin Type="Predecessor">
    <Description>
  <TranslatedText xml:lang="en">ADSL.TRT01PN</TranslatedText>
</Description>
  </def:Origin>
</ItemDef>
<ItemDef OID="ADEF.TRTP"
  Name="TRTP"
  SASFieldName="TRTP"
  DataType="text"
  Length="40"
  def:DisplayFormat="40"
  >
  <Description>
      <TranslatedText xml:lang="en">Planned Treatment</TranslatedText>
  </Description>
  <CodeListRef CodeListOID="CodeList.ARM"/><def:Origin Type="Predecessor">
    <Description>
  <TranslatedText xml:lang="en">ADSL.TRT01P</TranslatedText>
</Description>
  </def:Origin>
</ItemDef>
<ItemDef OID="ADEF.PARAMCD"
  Name="PARAMCD"
  SASFieldName="PARAMCD"
  DataType="text"
  Length="8"
  def:DisplayFormat="8"
  >
  <Description>
      <TranslatedText xml:lang="en">Parameter Code</TranslatedText>
  </Description>
  <CodeListRef CodeListOID="CodeList.ADEF.PARAMCD"/><def:Origin Type="Assigned">
    
  </def:Origin>
</ItemDef>
<ItemDef OID="ADEF.PARAM"
  Name="PARAM"
  SASFieldName="PARAM"
  DataType="text"
  Length="40"
  def:DisplayFormat="40"
  >
  <Description>
      <TranslatedText xml:lang="en">Parameter</TranslatedText>
  </Description>
  <CodeListRef CodeListOID="CodeList.ADEF.PARAM"/><def:Origin Type="Assigned">
    
  </def:Origin>
</ItemDef>
<ItemDef OID="ADEF.AVISIT"
  Name="AVISIT"
  SASFieldName="AVISIT"
  DataType="text"
  Length="16"
  def:DisplayFormat="16"
  >
  <Description>
      <TranslatedText xml:lang="en">Analysis Visit</TranslatedText>
  </Description>
  <CodeListRef CodeListOID="CodeList.VISIT"/><def:Origin Type="Predecessor">
    <Description>
  <TranslatedText xml:lang="en">XP.VISIT</TranslatedText>
</Description>
  </def:Origin>
</ItemDef>
<ItemDef OID="ADEF.AVISITN"
  Name="AVISITN"
  SASFieldName="AVISITN"
  DataType="integer"
  Length="8"
  def:DisplayFormat="8"
  >
  <Description>
      <TranslatedText xml:lang="en">Analysis Visit (N)</TranslatedText>
  </Description>
  <CodeListRef CodeListOID="CodeList.AVISITN"/><def:Origin Type="Derived">
    
  </def:Origin>
</ItemDef>
<ItemDef OID="ADEF.ABLFL"
  Name="ABLFL"
  SASFieldName="ABLFL"
  DataType="text"
  Length="1"
  def:DisplayFormat="1"
  >
  <Description>
      <TranslatedText xml:lang="en">Baseline Record Flag</TranslatedText>
  </Description>
  <CodeListRef CodeListOID="CodeList.FLAGS"/><def:Origin Type="Derived">
    
  </def:Origin>
</ItemDef>
<ItemDef OID="ADEF.XPSEQ"
  Name="XPSEQ"
  SASFieldName="XPSEQ"
  DataType="integer"
  Length="8"
  def:DisplayFormat="8"
  >
  <Description>
      <TranslatedText xml:lang="en">Sequence Number</TranslatedText>
  </Description>
  <def:Origin Type="Predecessor">
    <Description>
  <TranslatedText xml:lang="en">XP</TranslatedText>
</Description>
  </def:Origin>
</ItemDef>
<ItemDef OID="ADEF.VISITNUM"
  Name="VISITNUM"
  SASFieldName="VISITNUM"
  DataType="integer"
  Length="8"
  def:DisplayFormat="8"
  >
  <Description>
      <TranslatedText xml:lang="en">Visit Number</TranslatedText>
  </Description>
  <CodeListRef CodeListOID="CodeList.VISITNUM"/><def:Origin Type="Predecessor">
    <Description>
  <TranslatedText xml:lang="en">XP</TranslatedText>
</Description>
  </def:Origin>
</ItemDef>
<ItemDef OID="ADEF.ADT"
  Name="ADT"
  SASFieldName="ADT"
  DataType="integer"
  Length="8"
  def:DisplayFormat="date9."
  >
  <Description>
      <TranslatedText xml:lang="en">Analysis Date</TranslatedText>
  </Description>
  <def:Origin Type="Derived">
    
  </def:Origin>
</ItemDef>
<ItemDef OID="ADEF.ADY"
  Name="ADY"
  SASFieldName="ADY"
  DataType="integer"
  Length="8"
  def:DisplayFormat="8"
  >
  <Description>
      <TranslatedText xml:lang="en">Analysis Relative Day</TranslatedText>
  </Description>
  <def:Origin Type="Derived">
    
  </def:Origin>
</ItemDef>
<ItemDef OID="ADEF.AVAL"
  Name="AVAL"
  SASFieldName="AVAL"
  DataType="integer"
  Length="8"
  def:DisplayFormat="8"
  >
  <Description>
      <TranslatedText xml:lang="en">Analysis Value</TranslatedText>
  </Description>
  <def:Origin Type="Derived">
    
  </def:Origin>
</ItemDef>
<ItemDef OID="ADEF.AVALC"
  Name="AVALC"
  SASFieldName="AVALC"
  DataType="text"
  Length="12"
  def:DisplayFormat="12"
  >
  <Description>
      <TranslatedText xml:lang="en">Analysis Value (C)</TranslatedText>
  </Description>
  <def:Origin Type="Derived">
    
  </def:Origin>
</ItemDef>
<ItemDef OID="ADEF.BASE"
  Name="BASE"
  SASFieldName="BASE"
  DataType="integer"
  Length="8"
  def:DisplayFormat="8"
  >
  <Description>
      <TranslatedText xml:lang="en">Baseline Value</TranslatedText>
  </Description>
  <def:Origin Type="Derived">
    
  </def:Origin>
</ItemDef>
<ItemDef OID="ADEF.CHG"
  Name="CHG"
  SASFieldName="CHG"
  DataType="integer"
  Length="8"
  def:DisplayFormat="8"
  >
  <Description>
      <TranslatedText xml:lang="en">Change from Baseline</TranslatedText>
  </Description>
  <def:Origin Type="Derived">
    
  </def:Origin>
</ItemDef>
<ItemDef OID="ADEF.CRIT1FL"
  Name="CRIT1FL"
  SASFieldName="CRIT1FL"
  DataType="text"
  Length="1"
  def:DisplayFormat="1"
  >
  <Description>
      <TranslatedText xml:lang="en">Criterion 1 Evaluation Result Flag</TranslatedText>
  </Description>
  <CodeListRef CodeListOID="CodeList.YN"/><def:Origin Type="Derived">
    
  </def:Origin>
</ItemDef>
<ItemDef OID="ADEF.CRIT1"
  Name="CRIT1"
  SASFieldName="CRIT1"
  DataType="text"
  Length="60"
  def:DisplayFormat="60"
  >
  <Description>
      <TranslatedText xml:lang="en">Analysis Criterion 1</TranslatedText>
  </Description>
  <def:Origin Type="Derived">
    
  </def:Origin>
</ItemDef>
<ItemDef OID="ADEF.ITTFL"
  Name="ITTFL"
  SASFieldName="ITTFL"
  DataType="text"
  Length="1"
  def:DisplayFormat="1"
  >
  <Description>
      <TranslatedText xml:lang="en">Intent-to-Treat Flag</TranslatedText>
  </Description>
  <CodeListRef CodeListOID="CodeList.FLAGS"/><def:Origin Type="Predecessor">
    <Description>
  <TranslatedText xml:lang="en">ADSL</TranslatedText>
</Description>
  </def:Origin>
</ItemDef>
<ItemDef OID="ADAE.STUDYID"
  Name="STUDYID"
  SASFieldName="STUDYID"
  DataType="text"
  Length="15"
  def:DisplayFormat="15"
  >
  <Description>
      <TranslatedText xml:lang="en">Study Identifier</TranslatedText>
  </Description>
  <def:Origin Type="Predecessor">
    <Description>
  <TranslatedText xml:lang="en">ADSL</TranslatedText>
</Description>
  </def:Origin>
</ItemDef>
<ItemDef OID="ADAE.USUBJID"
  Name="USUBJID"
  SASFieldName="USUBJID"
  DataType="text"
  Length="25"
  def:DisplayFormat="25"
  >
  <Description>
      <TranslatedText xml:lang="en">Unique Subject Identifier</TranslatedText>
  </Description>
  <def:Origin Type="Predecessor">
    <Description>
  <TranslatedText xml:lang="en">ADSL</TranslatedText>
</Description>
  </def:Origin>
</ItemDef>
<ItemDef OID="ADAE.SITEID"
  Name="SITEID"
  SASFieldName="SITEID"
  DataType="text"
  Length="7"
  def:DisplayFormat="7"
  >
  <Description>
      <TranslatedText xml:lang="en">Study Site Identifier</TranslatedText>
  </Description>
  <def:Origin Type="Predecessor">
    <Description>
  <TranslatedText xml:lang="en">ADSL</TranslatedText>
</Description>
  </def:Origin>
</ItemDef>
<ItemDef OID="ADAE.COUNTRY"
  Name="COUNTRY"
  SASFieldName="COUNTRY"
  DataType="text"
  Length="3"
  def:DisplayFormat="3"
  >
  <Description>
      <TranslatedText xml:lang="en">Country</TranslatedText>
  </Description>
  <CodeListRef CodeListOID="CodeList.COUNTRY"/><def:Origin Type="Predecessor">
    <Description>
  <TranslatedText xml:lang="en">ADSL</TranslatedText>
</Description>
  </def:Origin>
</ItemDef>
<ItemDef OID="ADAE.AESEQ"
  Name="AESEQ"
  SASFieldName="AESEQ"
  DataType="integer"
  Length="8"
  def:DisplayFormat="8"
  >
  <Description>
      <TranslatedText xml:lang="en">Sequence Number</TranslatedText>
  </Description>
  <def:Origin Type="Predecessor">
    <Description>
  <TranslatedText xml:lang="en">AE</TranslatedText>
</Description>
  </def:Origin>
</ItemDef>
<ItemDef OID="ADAE.AGE"
  Name="AGE"
  SASFieldName="AGE"
  DataType="integer"
  Length="8"
  def:DisplayFormat="8"
  >
  <Description>
      <TranslatedText xml:lang="en">Unique Subject Identifier</TranslatedText>
  </Description>
  <def:Origin Type="Predecessor">
    <Description>
  <TranslatedText xml:lang="en">ADSL</TranslatedText>
</Description>
  </def:Origin>
</ItemDef>
<ItemDef OID="ADAE.AGEGR1N"
  Name="AGEGR1N"
  SASFieldName="AGEGR1N"
  DataType="integer"
  Length="8"
  def:DisplayFormat="8"
  >
  <Description>
      <TranslatedText xml:lang="en">Pooled Age Group 1 (N)</TranslatedText>
  </Description>
  <def:Origin Type="Predecessor">
    <Description>
  <TranslatedText xml:lang="en">ADSL</TranslatedText>
</Description>
  </def:Origin>
</ItemDef>
<ItemDef OID="ADAE.AGEGR1"
  Name="AGEGR1"
  SASFieldName="AGEGR1"
  DataType="text"
  Length="20"
  def:DisplayFormat="20"
  >
  <Description>
      <TranslatedText xml:lang="en">Pooled Age Group 1</TranslatedText>
  </Description>
  <CodeListRef CodeListOID="CodeList.AGEGR1"/><def:Origin Type="Predecessor">
    <Description>
  <TranslatedText xml:lang="en">ADSL</TranslatedText>
</Description>
  </def:Origin>
</ItemDef>
<ItemDef OID="ADAE.SEX"
  Name="SEX"
  SASFieldName="SEX"
  DataType="text"
  Length="1"
  def:DisplayFormat="1"
  >
  <Description>
      <TranslatedText xml:lang="en">Sex</TranslatedText>
  </Description>
  <def:Origin Type="Predecessor">
    <Description>
  <TranslatedText xml:lang="en">ADSL</TranslatedText>
</Description>
  </def:Origin>
</ItemDef>
<ItemDef OID="ADAE.TRTAN"
  Name="TRTAN"
  SASFieldName="TRTAN"
  DataType="integer"
  Length="8"
  def:DisplayFormat="8"
  >
  <Description>
      <TranslatedText xml:lang="en">Actual Treatment (N)</TranslatedText>
  </Description>
  <def:Origin Type="Predecessor">
    <Description>
  <TranslatedText xml:lang="en">ADSL.TRT01AN</TranslatedText>
</Description>
  </def:Origin>
</ItemDef>
<ItemDef OID="ADAE.TRTA"
  Name="TRTA"
  SASFieldName="TRTA"
  DataType="text"
  Length="40"
  def:DisplayFormat="40"
  >
  <Description>
      <TranslatedText xml:lang="en">Actual Treatment</TranslatedText>
  </Description>
  <def:Origin Type="Predecessor">
    <Description>
  <TranslatedText xml:lang="en">ADSL.TRT01A</TranslatedText>
</Description>
  </def:Origin>
</ItemDef>
<ItemDef OID="ADAE.AETERM"
  Name="AETERM"
  SASFieldName="AETERM"
  DataType="text"
  Length="200"
  def:DisplayFormat="200"
  >
  <Description>
      <TranslatedText xml:lang="en">Reported Term for the Adverse Event</TranslatedText>
  </Description>
  <def:Origin Type="Predecessor">
    <Description>
  <TranslatedText xml:lang="en">AE</TranslatedText>
</Description>
  </def:Origin>
</ItemDef>
<ItemDef OID="ADAE.AEDECOD"
  Name="AEDECOD"
  SASFieldName="AEDECOD"
  DataType="text"
  Length="200"
  def:DisplayFormat="200"
  >
  <Description>
      <TranslatedText xml:lang="en">Dictionary-Derived Term</TranslatedText>
  </Description>
  <CodeListRef CodeListOID="CodeList.MedDRA"/><def:Origin Type="Predecessor">
    <Description>
  <TranslatedText xml:lang="en">AE</TranslatedText>
</Description>
  </def:Origin>
</ItemDef>
<ItemDef OID="ADAE.AEBODSYS"
  Name="AEBODSYS"
  SASFieldName="AEBODSYS"
  DataType="text"
  Length="200"
  def:DisplayFormat="200"
  >
  <Description>
      <TranslatedText xml:lang="en">Body System or Organ Class</TranslatedText>
  </Description>
  <CodeListRef CodeListOID="CodeList.MedDRA"/><def:Origin Type="Predecessor">
    <Description>
  <TranslatedText xml:lang="en">AE</TranslatedText>
</Description>
  </def:Origin>
</ItemDef>
<ItemDef OID="ADAE.ASTDT"
  Name="ASTDT"
  SASFieldName="ASTDT"
  DataType="integer"
  Length="8"
  def:DisplayFormat="8"
  >
  <Description>
      <TranslatedText xml:lang="en">Start Date/Time of Adverse Events</TranslatedText>
  </Description>
  <def:Origin Type="Derived">
    
  </def:Origin>
</ItemDef>
<ItemDef OID="ADAE.AENDT"
  Name="AENDT"
  SASFieldName="AENDT"
  DataType="integer"
  Length="8"
  def:DisplayFormat="8"
  >
  <Description>
      <TranslatedText xml:lang="en">End Date/Time of Adverse Events</TranslatedText>
  </Description>
  <def:Origin Type="Derived">
    
  </def:Origin>
</ItemDef>
<ItemDef OID="ADAE.ASTDY"
  Name="ASTDY"
  SASFieldName="ASTDY"
  DataType="integer"
  Length="8"
  def:DisplayFormat="8"
  >
  <Description>
      <TranslatedText xml:lang="en">Study Day of Start of Adverse Event</TranslatedText>
  </Description>
  <def:Origin Type="Derived">
    
  </def:Origin>
</ItemDef>
<ItemDef OID="ADAE.AENDY"
  Name="AENDY"
  SASFieldName="AENDY"
  DataType="integer"
  Length="8"
  def:DisplayFormat="8"
  >
  <Description>
      <TranslatedText xml:lang="en">Study Day of End of Adverse Event</TranslatedText>
  </Description>
  <def:Origin Type="Derived">
    
  </def:Origin>
</ItemDef>
<ItemDef OID="ADAE.AESEV"
  Name="AESEV"
  SASFieldName="AESEV"
  DataType="text"
  Length="40"
  def:DisplayFormat="40"
  >
  <Description>
      <TranslatedText xml:lang="en">Severity/Intensity</TranslatedText>
  </Description>
  <CodeListRef CodeListOID="CodeList.AESEV"/><def:Origin Type="Predecessor">
    <Description>
  <TranslatedText xml:lang="en">AE</TranslatedText>
</Description>
  </def:Origin>
</ItemDef>
<ItemDef OID="ADAE.AESEVN"
  Name="AESEVN"
  SASFieldName="AESEVN"
  DataType="integer"
  Length="8"
  def:DisplayFormat="1"
  >
  <Description>
      <TranslatedText xml:lang="en">Severity/Intensity (N)</TranslatedText>
  </Description>
  <CodeListRef CodeListOID="CodeList.AESEVN"/><def:Origin Type="Derived">
    
  </def:Origin>
</ItemDef>
<ItemDef OID="ADAE.AESER"
  Name="AESER"
  SASFieldName="AESER"
  DataType="text"
  Length="40"
  def:DisplayFormat="40"
  >
  <Description>
      <TranslatedText xml:lang="en">Serious Event</TranslatedText>
  </Description>
  <CodeListRef CodeListOID="CodeList.YN"/><def:Origin Type="Predecessor">
    <Description>
  <TranslatedText xml:lang="en">AE</TranslatedText>
</Description>
  </def:Origin>
</ItemDef>
<ItemDef OID="ADAE.AEACN"
  Name="AEACN"
  SASFieldName="AEACN"
  DataType="text"
  Length="40"
  def:DisplayFormat="40"
  >
  <Description>
      <TranslatedText xml:lang="en">Action Taken with Study Treatment</TranslatedText>
  </Description>
  <CodeListRef CodeListOID="CodeList.ACN"/><def:Origin Type="Predecessor">
    <Description>
  <TranslatedText xml:lang="en">AE</TranslatedText>
</Description>
  </def:Origin>
</ItemDef>
<ItemDef OID="ADAE.AEREL"
  Name="AEREL"
  SASFieldName="AEREL"
  DataType="text"
  Length="40"
  def:DisplayFormat="40"
  >
  <Description>
      <TranslatedText xml:lang="en">Causality</TranslatedText>
  </Description>
  <CodeListRef CodeListOID="CodeList.AEREL"/><def:Origin Type="Predecessor">
    <Description>
  <TranslatedText xml:lang="en">AE</TranslatedText>
</Description>
  </def:Origin>
</ItemDef>
<ItemDef OID="ADAE.AERELN"
  Name="AERELN"
  SASFieldName="AERELN"
  DataType="integer"
  Length="8"
  def:DisplayFormat="1"
  >
  <Description>
      <TranslatedText xml:lang="en">Causality (N)</TranslatedText>
  </Description>
  <CodeListRef CodeListOID="CodeList.AERELN"/><def:Origin Type="Derived">
    
  </def:Origin>
</ItemDef>
<ItemDef OID="ADAE.CQ01NAM"
  Name="CQ01NAM"
  SASFieldName="CQ01NAM"
  DataType="text"
  Length="200"
  def:DisplayFormat="200"
  >
  <Description>
      <TranslatedText xml:lang="en">CQ 01 Name</TranslatedText>
  </Description>
  <def:Origin Type="Derived">
    
  </def:Origin>
</ItemDef>
<ItemDef OID="ADAE.RELGR1"
  Name="RELGR1"
  SASFieldName="RELGR1"
  DataType="text"
  Length="15"
  def:DisplayFormat="15"
  >
  <Description>
      <TranslatedText xml:lang="en">Pooled Causality Group 1</TranslatedText>
  </Description>
  <CodeListRef CodeListOID="CodeList.RELGR1"/><def:Origin Type="Derived">
    
  </def:Origin>
</ItemDef>
<ItemDef OID="ADAE.RELGR1N"
  Name="RELGR1N"
  SASFieldName="RELGR1N"
  DataType="integer"
  Length="8"
  def:DisplayFormat="8"
  >
  <Description>
      <TranslatedText xml:lang="en">Pooled Causality Group 1 (N)</TranslatedText>
  </Description>
  <CodeListRef CodeListOID="CodeList.RELGR1N"/><def:Origin Type="Derived">
    
  </def:Origin>
</ItemDef>
<ItemDef OID="ADAE.TRTEMFL"
  Name="TRTEMFL"
  SASFieldName="TRTEMFL"
  DataType="text"
  Length="1"
  def:DisplayFormat="1"
  >
  <Description>
      <TranslatedText xml:lang="en">Treatment Emergent Flag</TranslatedText>
  </Description>
  <CodeListRef CodeListOID="CodeList.FLAGS"/><def:Origin Type="Derived">
    
  </def:Origin>
</ItemDef>
<ItemDef OID="ADAE.SAFFL"
  Name="SAFFL"
  SASFieldName="SAFFL"
  DataType="text"
  Length="1"
  def:DisplayFormat="1"
  >
  <Description>
      <TranslatedText xml:lang="en">Safety Population Flag</TranslatedText>
  </Description>
  <CodeListRef CodeListOID="CodeList.FLAGS"/><def:Origin Type="Predecessor">
    <Description>
  <TranslatedText xml:lang="en">ADSL</TranslatedText>
</Description>
  </def:Origin>
</ItemDef>
<ItemDef OID="ADTTE.STUDYID"
  Name="STUDYID"
  SASFieldName="STUDYID"
  DataType="text"
  Length="15"
  def:DisplayFormat="15"
  >
  <Description>
      <TranslatedText xml:lang="en">Study Identifier</TranslatedText>
  </Description>
  <def:Origin Type="Predecessor">
    <Description>
  <TranslatedText xml:lang="en">ADSL</TranslatedText>
</Description>
  </def:Origin>
</ItemDef>
<ItemDef OID="ADTTE.USUBJID"
  Name="USUBJID"
  SASFieldName="USUBJID"
  DataType="text"
  Length="25"
  def:DisplayFormat="25"
  >
  <Description>
      <TranslatedText xml:lang="en">Domain Abbreviation</TranslatedText>
  </Description>
  <def:Origin Type="Predecessor">
    <Description>
  <TranslatedText xml:lang="en">ADSL</TranslatedText>
</Description>
  </def:Origin>
</ItemDef>
<ItemDef OID="ADTTE.SITEID"
  Name="SITEID"
  SASFieldName="SITEID"
  DataType="text"
  Length="7"
  def:DisplayFormat="7"
  >
  <Description>
      <TranslatedText xml:lang="en">Study Site Identifier</TranslatedText>
  </Description>
  <def:Origin Type="Predecessor">
    <Description>
  <TranslatedText xml:lang="en">ADSL</TranslatedText>
</Description>
  </def:Origin>
</ItemDef>
<ItemDef OID="ADTTE.COUNTRY"
  Name="COUNTRY"
  SASFieldName="COUNTRY"
  DataType="text"
  Length="3"
  def:DisplayFormat="3"
  >
  <Description>
      <TranslatedText xml:lang="en">Country</TranslatedText>
  </Description>
  <CodeListRef CodeListOID="CodeList.COUNTRY"/><def:Origin Type="Predecessor">
    <Description>
  <TranslatedText xml:lang="en">ADSL</TranslatedText>
</Description>
  </def:Origin>
</ItemDef>
<ItemDef OID="ADTTE.AGE"
  Name="AGE"
  SASFieldName="AGE"
  DataType="integer"
  Length="8"
  def:DisplayFormat="8"
  >
  <Description>
      <TranslatedText xml:lang="en">Unique Subject Identifier</TranslatedText>
  </Description>
  <def:Origin Type="Predecessor">
    <Description>
  <TranslatedText xml:lang="en">ADSL</TranslatedText>
</Description>
  </def:Origin>
</ItemDef>
<ItemDef OID="ADTTE.AGEGR1N"
  Name="AGEGR1N"
  SASFieldName="AGEGR1N"
  DataType="integer"
  Length="8"
  def:DisplayFormat="8"
  >
  <Description>
      <TranslatedText xml:lang="en">Pooled Age Group 1 (N)</TranslatedText>
  </Description>
  <def:Origin Type="Predecessor">
    <Description>
  <TranslatedText xml:lang="en">ADSL</TranslatedText>
</Description>
  </def:Origin>
</ItemDef>
<ItemDef OID="ADTTE.AGEGR1"
  Name="AGEGR1"
  SASFieldName="AGEGR1"
  DataType="text"
  Length="20"
  def:DisplayFormat="20"
  >
  <Description>
      <TranslatedText xml:lang="en">Pooled Age Group 1</TranslatedText>
  </Description>
  <CodeListRef CodeListOID="CodeList.AGEGR1"/><def:Origin Type="Predecessor">
    <Description>
  <TranslatedText xml:lang="en">ADSL</TranslatedText>
</Description>
  </def:Origin>
</ItemDef>
<ItemDef OID="ADTTE.SEX"
  Name="SEX"
  SASFieldName="SEX"
  DataType="text"
  Length="1"
  def:DisplayFormat="1"
  >
  <Description>
      <TranslatedText xml:lang="en">Sex</TranslatedText>
  </Description>
  <def:Origin Type="Predecessor">
    <Description>
  <TranslatedText xml:lang="en">ADSL</TranslatedText>
</Description>
  </def:Origin>
</ItemDef>
<ItemDef OID="ADTTE.RACE"
  Name="RACE"
  SASFieldName="RACE"
  DataType="text"
  Length="40"
  def:DisplayFormat="40"
  >
  <Description>
      <TranslatedText xml:lang="en">Race</TranslatedText>
  </Description>
  <CodeListRef CodeListOID="CodeList.RACE"/><def:Origin Type="Predecessor">
    <Description>
  <TranslatedText xml:lang="en">ADSL</TranslatedText>
</Description>
  </def:Origin>
</ItemDef>
<ItemDef OID="ADTTE.TRTPN"
  Name="TRTPN"
  SASFieldName="TRTPN"
  DataType="integer"
  Length="8"
  def:DisplayFormat="8"
  >
  <Description>
      <TranslatedText xml:lang="en">Planned Treatment (N)</TranslatedText>
  </Description>
  <CodeListRef CodeListOID="CodeList.ARMN"/><def:Origin Type="Predecessor">
    <Description>
  <TranslatedText xml:lang="en">ADSL.TRT01PN</TranslatedText>
</Description>
  </def:Origin>
</ItemDef>
<ItemDef OID="ADTTE.TRTP"
  Name="TRTP"
  SASFieldName="TRTP"
  DataType="text"
  Length="40"
  def:DisplayFormat="40"
  >
  <Description>
      <TranslatedText xml:lang="en">Planned Treatment</TranslatedText>
  </Description>
  <CodeListRef CodeListOID="CodeList.ARM"/><def:Origin Type="Predecessor">
    <Description>
  <TranslatedText xml:lang="en">ADSL.TRT01P</TranslatedText>
</Description>
  </def:Origin>
</ItemDef>
<ItemDef OID="ADTTE.PARAMCD"
  Name="PARAMCD"
  SASFieldName="PARAMCD"
  DataType="text"
  Length="8"
  def:DisplayFormat="8"
  >
  <Description>
      <TranslatedText xml:lang="en">Parameter Code</TranslatedText>
  </Description>
  <CodeListRef CodeListOID="CodeList.ADTTE.PARAMCD"/><def:Origin Type="Assigned">
    
  </def:Origin>
</ItemDef>
<ItemDef OID="ADTTE.PARAM"
  Name="PARAM"
  SASFieldName="PARAM"
  DataType="text"
  Length="40"
  def:DisplayFormat="40"
  >
  <Description>
      <TranslatedText xml:lang="en">Parameter</TranslatedText>
  </Description>
  <CodeListRef CodeListOID="CodeList.ADTTE.PARAM"/><def:Origin Type="Assigned">
    
  </def:Origin>
</ItemDef>
<ItemDef OID="ADTTE.ADT"
  Name="ADT"
  SASFieldName="ADT"
  DataType="integer"
  Length="8"
  def:DisplayFormat="8"
  >
  <Description>
      <TranslatedText xml:lang="en">Analysis Date</TranslatedText>
  </Description>
  <def:Origin Type="Derived">
    
  </def:Origin>
</ItemDef>
<ItemDef OID="ADTTE.STARTDT"
  Name="STARTDT"
  SASFieldName="STARTDT"
  DataType="integer"
  Length="8"
  def:DisplayFormat="8"
  >
  <Description>
      <TranslatedText xml:lang="en">Time to Event Origin Date for Subject</TranslatedText>
  </Description>
  <def:Origin Type="Predecessor">
    <Description>
  <TranslatedText xml:lang="en">ADSL.RANDDT</TranslatedText>
</Description>
  </def:Origin>
</ItemDef>
<ItemDef OID="ADTTE.AVAL"
  Name="AVAL"
  SASFieldName="AVAL"
  DataType="integer"
  Length="8"
  def:DisplayFormat="8"
  >
  <Description>
      <TranslatedText xml:lang="en">Analysis Value</TranslatedText>
  </Description>
  <def:Origin Type="Derived">
    
  </def:Origin>
</ItemDef>
<ItemDef OID="ADTTE.CNSR"
  Name="CNSR"
  SASFieldName="CNSR"
  DataType="integer"
  Length="8"
  def:DisplayFormat="8"
  >
  <Description>
      <TranslatedText xml:lang="en">Censor</TranslatedText>
  </Description>
  <def:Origin Type="Derived">
    
  </def:Origin>
</ItemDef>
<ItemDef OID="ADTTE.EVNTDESC"
  Name="EVNTDESC"
  SASFieldName="EVNTDESC"
  DataType="text"
  Length="50"
  def:DisplayFormat="50"
  >
  <Description>
      <TranslatedText xml:lang="en">Event description</TranslatedText>
  </Description>
  <def:Origin Type="Derived">
    
  </def:Origin>
</ItemDef>
<ItemDef OID="ADTTE.SRCDOM"
  Name="SRCDOM"
  SASFieldName="SRCDOM"
  DataType="text"
  Length="6"
  def:DisplayFormat="6"
  >
  <Description>
      <TranslatedText xml:lang="en">Source Domain</TranslatedText>
  </Description>
  <def:Origin Type="Derived">
    
  </def:Origin>
</ItemDef>
<ItemDef OID="ADTTE.SRCVAR"
  Name="SRCVAR"
  SASFieldName="SRCVAR"
  DataType="text"
  Length="8"
  def:DisplayFormat="8"
  >
  <Description>
      <TranslatedText xml:lang="en">Source Variable</TranslatedText>
  </Description>
  <def:Origin Type="Derived">
    
  </def:Origin>
</ItemDef>
<ItemDef OID="ADTTE.SRCSEQ"
  Name="SRCSEQ"
  SASFieldName="SRCSEQ"
  DataType="integer"
  Length="8"
  def:DisplayFormat="8"
  >
  <Description>
      <TranslatedText xml:lang="en">Source Sequence Number</TranslatedText>
  </Description>
  <def:Origin Type="Derived">
    
  </def:Origin>
</ItemDef>
<ItemDef OID="ADTTE.ITTFL"
  Name="ITTFL"
  SASFieldName="ITTFL"
  DataType="text"
  Length="1"
  def:DisplayFormat="1"
  >
  <Description>
      <TranslatedText xml:lang="en">Intent-to-Treat Flag</TranslatedText>
  </Description>
  <CodeListRef CodeListOID="CodeList.FLAGS"/><def:Origin Type="Predecessor">
    <Description>
  <TranslatedText xml:lang="en">ADSL</TranslatedText>
</Description>
  </def:Origin>
</ItemDef>
  <!-- ******************************************* -->
  <!-- COMPUTATIONAL METHOD INFORMATION        *** -->
  <!-- ******************************************* -->
<MethodDef OID="BASE" Name="Baseline value derivation" Type="Computation">
  <Description>
    <TranslatedText xml:lang="en">Last non-missing value of AVAL prior to first dose</TranslatedText>
  </Description>
</MethodDef>
<MethodDef OID="CHANGEFROMBASELINE" Name="Change from baseline calculation" Type="Computation">
  <Description>
    <TranslatedText xml:lang="en">AVAL-BASE</TranslatedText>
  </Description>
</MethodDef>
<MethodDef OID="RESPONDER" Name="Responder derivation" Type="Computation">
  <Description>
    <TranslatedText xml:lang="en">IF (.Z<CHG<=-2) THEN CRIT1FL='Y' ELSE CRIT1FL='N'</TranslatedText>
  </Description>
</MethodDef>
<MethodDef OID="TTPNRELF" Name="Time to first pain relief without worsening derivation" Type="Computation">
  <Description>
    <TranslatedText xml:lang="en">Derived from ADEF.ADY (where PARAMCD=XPPAIN and ADY>1) or ADAE.ASDY where CQ01NAM=PAIN EVENT.  Value is the earliest day when ADEF.CHG<0 (for an event) or (ADEF.CHG>0 or ADAE.ASDY>0) (for subjects censored due to pain worsening) or the last record where ADEF.CHG=0 (for subjects censored due to no improvement or worsening by the time of the last assessment)</TranslatedText>
  </Description>
</MethodDef>
<MethodDef OID="TTPNRELF.CNSR" Name="Censoring algorithm for Time to First Pain Relief" Type="Computation">
  <Description>
    <TranslatedText xml:lang="en">if pain relief occurs before worsening, then CNSR=0; else if worsening from pain data, then CNSR=1; else if worsening from AE data, then CNSR=3; else if no relief and no worsening at time of last observation, then CNSR=4</TranslatedText>
  </Description>
</MethodDef>
<MethodDef OID="TTPNRELF.EVNTDESC" Name="Event descriptions for Time to First Pain Relief" Type="Computation">
  <Description>
    <TranslatedText xml:lang="en">if CNSR=0, then EVNTDESC=PAIN RELIEF; if CNSR=1, then EVNTDESC=PAIN WORSENING PRIOR TO RELIEF; if CNSR=2, then EVNTDESC=PAIN ADVERSE EVENT PRIOR TO RELIEF; if CNSR=3, then EVNTDESC=NO RELIEF AND NO WORSENING AT LAST ASSESSMENT</TranslatedText>
  </Description>
</MethodDef>
<MethodDef OID="TRTSDT" Name="Date of first exposure to treatment derivation" Type="Computation">
  <Description>
    <TranslatedText xml:lang="en">EX.EXSTDTC where EXSEQ=1, converted to a SAS date.  See SAP for missing or partial value imputations.</TranslatedText>
  </Description>
</MethodDef>
<MethodDef OID="TRTEDT" Name="Date of last exposure to treatment derivation" Type="Computation">
  <Description>
    <TranslatedText xml:lang="en">EX.EXENDTC converted to a SAS date for the last record in EX.  See SAP for missing or partial value imputations.</TranslatedText>
  </Description>
</MethodDef>
<MethodDef OID="ITTFL" Name="Intent-to-Treat flag derivation" Type="Computation">
  <Description>
    <TranslatedText xml:lang="en">If ADSL.RANDDT ^= missing then Y, else Null</TranslatedText>
  </Description>
</MethodDef>
<MethodDef OID="SAFFL" Name="Safety population flag derivation" Type="Computation">
  <Description>
    <TranslatedText xml:lang="en">If ADSL.TRTSDT^=missing then Y, else Null</TranslatedText>
  </Description>
</MethodDef>
<MethodDef OID="RESPFL" Name="Responder population flag derivation" Type="Computation">
  <Description>
    <TranslatedText xml:lang="en">If XP.VISIT='Month 6' and XPSTRESN represents at least a two-point improvement from the baseline record then Y, else N</TranslatedText>
  </Description>
</MethodDef>
<MethodDef OID="RANDDT" Name="Randomization date derivation" Type="Computation">
  <Description>
    <TranslatedText xml:lang="en">SUPPDM.QVAL where SUPPDM.QNAM=RANDDTC, converted to a SAS date</TranslatedText>
  </Description>
</MethodDef>
<MethodDef OID="ABLFL" Name="Analysis baseline record flag" Type="Computation">
  <Description>
    <TranslatedText xml:lang="en">Last visit with a non-missing record prior to first dose</TranslatedText>
  </Description>
</MethodDef>
<MethodDef OID="ADT" Name="Analysis date calculation" Type="Computation">
  <Description>
    <TranslatedText xml:lang="en">XPDTC converted to a SAS date.  See SAP for missing or partial value imputations</TranslatedText>
  </Description>
</MethodDef>
<MethodDef OID="ADY" Name="Analysis day calculation" Type="Computation">
  <Description>
    <TranslatedText xml:lang="en">ADT - ADSL.RANDDT + 1</TranslatedText>
  </Description>
</MethodDef>
<MethodDef OID="ADAE.ASTDT" Name="Analysis start date calculation" Type="Computation">
  <Description>
    <TranslatedText xml:lang="en">AESTDTC converted to a SAS date.  See SAP for missing or partial value imputations</TranslatedText>
  </Description>
</MethodDef>
<MethodDef OID="ADAE.AENDT" Name="Analysis end date calculation" Type="Computation">
  <Description>
    <TranslatedText xml:lang="en">AEENDTC converted to a SAS date.  See SAP for missing or partial value imputations</TranslatedText>
  </Description>
</MethodDef>
<MethodDef OID="ADAE.ASTDY" Name="Analysis start day calculation" Type="Computation">
  <Description>
    <TranslatedText xml:lang="en">ASTDT - ADSL.TRTSDT + 1</TranslatedText>
  </Description>
</MethodDef>
<MethodDef OID="ADAE.AENDY" Name="Analysis end day calculation" Type="Computation">
  <Description>
    <TranslatedText xml:lang="en">AENDT - ADSL.TRTEDT + 1</TranslatedText>
  </Description>
</MethodDef>
<MethodDef OID="ADTTE.SRCVAR" Name="SRCVAR algorithm" Type="Computation">
  <Description>
    <TranslatedText xml:lang="en">SRCVAR = ADEF if first event is a negative pain score or if worsening occurs before an improvement.  SRCVAR = ADAE if ADAE.CQ01NAM is non-missing on a date prior to a pain improvement or worsening.</TranslatedText>
  </Description>
</MethodDef>
<MethodDef OID="ADTTE.SRCSEQ" Name="SRCSEQ algorithm" Type="Computation">
  <Description>
    <TranslatedText xml:lang="en">if SRCVAR=ADEF then SRCSEQ=ADEF.XPSEQ from the corresponding record; else if SRCVAR=ADAE then SRCSEQ=ADAE.AESEQ from the corresponding record.</TranslatedText>
  </Description>
</MethodDef>
<MethodDef OID="COMP.SEECODELIST" Name="See codelist" Type="Computation">
  <Description>
    <TranslatedText xml:lang="en">See codelist</TranslatedText>
  </Description>
</MethodDef>
<MethodDef OID="COMP.SEEVALUELEVEL" Name="See parameter value-level metadata" Type="Computation">
  <Description>
    <TranslatedText xml:lang="en">See parameter value-level metadata</TranslatedText>
  </Description>
</MethodDef>
<MethodDef OID="RELGR1" Name="AE relatedness derivation" Type="Computation">
  <Description>
    <TranslatedText xml:lang="en">If AEREL=NOT RELATED  then NOT RELATED; Otherwise RELATED</TranslatedText>
  </Description>
</MethodDef>
<MethodDef OID="AGEGR1" Name="Age group derivation" Type="Computation">
  <Description>
    <TranslatedText xml:lang="en">If age<55 then "<55 years"; else if age>=55 then ">=55 YEARS"</TranslatedText>
  </Description>
</MethodDef>

  <!-- ************************************************************ -->
  <!-- Codelists are presented below                                -->
  <!-- ************************************************************ -->
<CodeList OID="CodeList.ACN"
Name="ACN"
DataType="text">
<CodeListItem CodedValue="DOSE INCREASED" OrderNumber="1">
  <Decode>
    <TranslatedText>DOSE INCREASED</TranslatedText>
  </Decode>
</CodeListItem>
<CodeListItem CodedValue="DOSE NOT CHANGED" OrderNumber="2">
  <Decode>
    <TranslatedText>DOSE NOT CHANGED</TranslatedText>
  </Decode>
</CodeListItem>
<CodeListItem CodedValue="DOSE REDUCED" OrderNumber="3">
  <Decode>
    <TranslatedText>DOSE REDUCED</TranslatedText>
  </Decode>
</CodeListItem>
<CodeListItem CodedValue="DRUG INTERRUPTED" OrderNumber="4">
  <Decode>
    <TranslatedText>DRUG INTERRUPTED</TranslatedText>
  </Decode>
</CodeListItem>
<CodeListItem CodedValue="DRUG WITHDRAWN" OrderNumber="5">
  <Decode>
    <TranslatedText>DRUG WITHDRAWN</TranslatedText>
  </Decode>
</CodeListItem>
<CodeListItem CodedValue="NOT APPLICABLE" OrderNumber="6">
  <Decode>
    <TranslatedText>NA</TranslatedText>
  </Decode>
</CodeListItem>
<CodeListItem CodedValue="UNKNOWN" OrderNumber="7">
  <Decode>
    <TranslatedText>U; Unknown</TranslatedText>
  </Decode>
</CodeListItem>
</CodeList>
<CodeList OID="CodeList.ADEF.CRIT1"
Name="ADEF.CRIT1"
DataType="text">
<CodeListItem CodedValue="Pain improvement from baseline of at least 2 points" OrderNumber="1">
  <Decode>
    <TranslatedText>Pain improvement from baseline of at least 2 points</TranslatedText>
  </Decode>
</CodeListItem>
</CodeList>
<CodeList OID="CodeList.ADEF.PARAM"
Name="ADEF.PARAM"
DataType="text">
<CodeListItem CodedValue="Pain Score" OrderNumber="1">
  <Decode>
    <TranslatedText>Pain Score</TranslatedText>
  </Decode>
</CodeListItem>
</CodeList>
<CodeList OID="CodeList.ADEF.PARAMCD"
Name="ADEF.PARAMCD"
DataType="text">
<CodeListItem CodedValue="XPPAIN" OrderNumber="1">
  <Decode>
    <TranslatedText>Pain Score</TranslatedText>
  </Decode>
</CodeListItem>
</CodeList>
<CodeList OID="CodeList.ADTTE.PARAM"
Name="ADTTE.PARAM"
DataType="text">
<CodeListItem CodedValue="Time to first pain relief" OrderNumber="1">
  <Decode>
    <TranslatedText>Time to first pain relief</TranslatedText>
  </Decode>
</CodeListItem>
</CodeList>
<CodeList OID="CodeList.ADTTE.PARAMCD"
Name="ADTTE.PARAMCD"
DataType="text">
<CodeListItem CodedValue="TTPNRELF" OrderNumber="1">
  <Decode>
    <TranslatedText>Time to first pain relief</TranslatedText>
  </Decode>
</CodeListItem>
</CodeList>
<CodeList OID="CodeList.AEREL"
Name="AEREL"
DataType="text">
<CodeListItem CodedValue="NOT RELATED" OrderNumber="1">
  <Decode>
    <TranslatedText>NOT RELATED</TranslatedText>
  </Decode>
</CodeListItem>
<CodeListItem CodedValue="POSSIBLY RELATED" OrderNumber="2">
  <Decode>
    <TranslatedText>POSSIBLY RELATED</TranslatedText>
  </Decode>
</CodeListItem>
<CodeListItem CodedValue="PROBABLY RELATED" OrderNumber="3">
  <Decode>
    <TranslatedText>PROBABLY RELATED</TranslatedText>
  </Decode>
</CodeListItem>
</CodeList>
<CodeList OID="CodeList.AERELN"
Name="AERELN"
DataType="integer">
<CodeListItem CodedValue="0" OrderNumber="1">
  <Decode>
    <TranslatedText>NOT RELATED</TranslatedText>
  </Decode>
</CodeListItem>
<CodeListItem CodedValue="1" OrderNumber="2">
  <Decode>
    <TranslatedText>POSSIBLY RELATED</TranslatedText>
  </Decode>
</CodeListItem>
<CodeListItem CodedValue="2" OrderNumber="3">
  <Decode>
    <TranslatedText>PROBABLY RELATED</TranslatedText>
  </Decode>
</CodeListItem>
</CodeList>
<CodeList OID="CodeList.AESEV"
Name="AESEV"
DataType="text">
<CodeListItem CodedValue="MILD" OrderNumber="1">
  <Decode>
    <TranslatedText>Grade 1; 1</TranslatedText>
  </Decode>
</CodeListItem>
<CodeListItem CodedValue="MODERATE" OrderNumber="2">
  <Decode>
    <TranslatedText>Grade 2; 2</TranslatedText>
  </Decode>
</CodeListItem>
<CodeListItem CodedValue="SEVERE" OrderNumber="3">
  <Decode>
    <TranslatedText>Grade 3; 3</TranslatedText>
  </Decode>
</CodeListItem>
</CodeList>
<CodeList OID="CodeList.AESEVN"
Name="AESEVN"
DataType="integer">
<CodeListItem CodedValue="1" OrderNumber="1">
  <Decode>
    <TranslatedText>Mild</TranslatedText>
  </Decode>
</CodeListItem>
<CodeListItem CodedValue="2" OrderNumber="2">
  <Decode>
    <TranslatedText>Moderate</TranslatedText>
  </Decode>
</CodeListItem>
<CodeListItem CodedValue="3" OrderNumber="3">
  <Decode>
    <TranslatedText>Severe</TranslatedText>
  </Decode>
</CodeListItem>
</CodeList>
<CodeList OID="CodeList.AGEGR1"
Name="AGEGR1"
DataType="text">
<CodeListItem CodedValue="<55 YEARS" OrderNumber="1">
  <Decode>
    <TranslatedText><55 Years</TranslatedText>
  </Decode>
</CodeListItem>
<CodeListItem CodedValue=">=55 YEARS" OrderNumber="2">
  <Decode>
    <TranslatedText>>=55 Years</TranslatedText>
  </Decode>
</CodeListItem>
</CodeList>
<CodeList OID="CodeList.AGEGR1N"
Name="AGEGR1N"
DataType="integer">
<CodeListItem CodedValue="1" OrderNumber="1">
  <Decode>
    <TranslatedText><55 Years</TranslatedText>
  </Decode>
</CodeListItem>
<CodeListItem CodedValue="2" OrderNumber="2">
  <Decode>
    <TranslatedText>>=55 Years</TranslatedText>
  </Decode>
</CodeListItem>
</CodeList>
<CodeList OID="CodeList.AGEU"
Name="AGEU"
DataType="text">
<CodeListItem CodedValue="YEARS" OrderNumber="1">
  <Decode>
    <TranslatedText>YEARS</TranslatedText>
  </Decode>
</CodeListItem>
</CodeList>
<CodeList OID="CodeList.ARM"
Name="ARM"
DataType="text">
<CodeListItem CodedValue="Analgezia HCL 30 mg" OrderNumber="1">
  <Decode>
    <TranslatedText>Analgezia HCL 30 mg</TranslatedText>
  </Decode>
</CodeListItem>
<CodeListItem CodedValue="Placebo" OrderNumber="2">
  <Decode>
    <TranslatedText>Placebo</TranslatedText>
  </Decode>
</CodeListItem>
</CodeList>
<CodeList OID="CodeList.ARMCD"
Name="ARMCD"
DataType="text">
<CodeListItem CodedValue="ALG123" OrderNumber="1">
  <Decode>
    <TranslatedText>Analgezia HCL 30 mg</TranslatedText>
  </Decode>
</CodeListItem>
<CodeListItem CodedValue="PLACEBO" OrderNumber="2">
  <Decode>
    <TranslatedText>Placebo</TranslatedText>
  </Decode>
</CodeListItem>
</CodeList>
<CodeList OID="CodeList.ARMN"
Name="ARMN"
DataType="integer">
<CodeListItem CodedValue="1" OrderNumber="1">
  <Decode>
    <TranslatedText>Analgezia HCL 30 mg</TranslatedText>
  </Decode>
</CodeListItem>
<CodeListItem CodedValue="0" OrderNumber="2">
  <Decode>
    <TranslatedText>Placebo</TranslatedText>
  </Decode>
</CodeListItem>
</CodeList>
<CodeList OID="CodeList.AVISITN"
Name="AVISITN"
DataType="integer">
<CodeListItem CodedValue="0" OrderNumber="1">
  <Decode>
    <TranslatedText>Baseline</TranslatedText>
  </Decode>
</CodeListItem>
<CodeListItem CodedValue="3" OrderNumber="2">
  <Decode>
    <TranslatedText>Month 3</TranslatedText>
  </Decode>
</CodeListItem>
<CodeListItem CodedValue="6" OrderNumber="3">
  <Decode>
    <TranslatedText>Month 6</TranslatedText>
  </Decode>
</CodeListItem>
</CodeList>
<CodeList OID="CodeList.CENSOR"
Name="CENSOR"
DataType="integer">
<CodeListItem CodedValue="0" OrderNumber="1">
  <Decode>
    <TranslatedText>Pain relief</TranslatedText>
  </Decode>
</CodeListItem>
<CodeListItem CodedValue="1" OrderNumber="2">
  <Decode>
    <TranslatedText>Pain worsening prior to relief</TranslatedText>
  </Decode>
</CodeListItem>
<CodeListItem CodedValue="2" OrderNumber="3">
  <Decode>
    <TranslatedText>Pain adverse event prior to relief</TranslatedText>
  </Decode>
</CodeListItem>
<CodeListItem CodedValue="3" OrderNumber="4">
  <Decode>
    <TranslatedText>No relief and no worsening at last assessment</TranslatedText>
  </Decode>
</CodeListItem>
</CodeList>
<CodeList OID="CodeList.COUNTRY"
Name="COUNTRY"
DataType="text">
<CodeListItem CodedValue="USA" OrderNumber="1">
  <Decode>
    <TranslatedText>UNITED STATES</TranslatedText>
  </Decode>
</CodeListItem>
</CodeList>
<CodeList OID="CodeList.CRIT1VALUES"
Name="CRIT1VALUES"
DataType="text">
<CodeListItem CodedValue="Pain improvement from baseline of at least 2 points" OrderNumber="1">
  <Decode>
    <TranslatedText>Pain improvement from baseline of at least 2 points</TranslatedText>
  </Decode>
</CodeListItem>
</CodeList>
<CodeList OID="CodeList.EVNTDESC"
Name="EVNTDESC"
DataType="text">
<CodeListItem CodedValue="PAIN RELIEF" OrderNumber="1">
  <Decode>
    <TranslatedText>Pain relief</TranslatedText>
  </Decode>
</CodeListItem>
<CodeListItem CodedValue="PAIN WORSENING PRIOR TO RELIEF" OrderNumber="2">
  <Decode>
    <TranslatedText>Pain worsening prior to relief</TranslatedText>
  </Decode>
</CodeListItem>
<CodeListItem CodedValue="PAIN ADVERSE EVENT PRIOR TO RELIEF" OrderNumber="3">
  <Decode>
    <TranslatedText>Pain adverse event prior to relief</TranslatedText>
  </Decode>
</CodeListItem>
<CodeListItem CodedValue="NO RELIEF AND NO WORSENING AT LAST ASSESSMENT" OrderNumber="4">
  <Decode>
    <TranslatedText>No relief and no worsening at last assessment</TranslatedText>
  </Decode>
</CodeListItem>
</CodeList>
<CodeList OID="CodeList.FLAGS"
Name="FLAGS"
DataType="text">
<CodeListItem CodedValue="Y" OrderNumber="1">
  <Decode>
    <TranslatedText>Yes</TranslatedText>
  </Decode>
</CodeListItem>
</CodeList>
<CodeList OID="CodeList.PAINSCORE"
Name="PAINSCORE"
DataType="integer">
<CodeListItem CodedValue="0" OrderNumber="0">
  <Decode>
    <TranslatedText>None</TranslatedText>
  </Decode>
</CodeListItem>
<CodeListItem CodedValue="1" OrderNumber="1">
  <Decode>
    <TranslatedText>Mild</TranslatedText>
  </Decode>
</CodeListItem>
<CodeListItem CodedValue="2" OrderNumber="2">
  <Decode>
    <TranslatedText>Moderate</TranslatedText>
  </Decode>
</CodeListItem>
<CodeListItem CodedValue="3" OrderNumber="3">
  <Decode>
    <TranslatedText>Severe</TranslatedText>
  </Decode>
</CodeListItem>
</CodeList>
<CodeList OID="CodeList.RACE"
Name="RACE"
DataType="text">
<CodeListItem CodedValue="BLACK OR AFRICAN AMERICAN" OrderNumber="1">
  <Decode>
    <TranslatedText>BLACK OR AFRICAN AMERICAN</TranslatedText>
  </Decode>
</CodeListItem>
<CodeListItem CodedValue="ASIAN" OrderNumber="2">
  <Decode>
    <TranslatedText>ASIAN</TranslatedText>
  </Decode>
</CodeListItem>
<CodeListItem CodedValue="WHITE" OrderNumber="3">
  <Decode>
    <TranslatedText>WHITE</TranslatedText>
  </Decode>
</CodeListItem>
</CodeList>
<CodeList OID="CodeList.RELGR1"
Name="RELGR1"
DataType="text">
<CodeListItem CodedValue="Not related" OrderNumber="1">
  <Decode>
    <TranslatedText>Not related</TranslatedText>
  </Decode>
</CodeListItem>
<CodeListItem CodedValue="Related" OrderNumber="2">
  <Decode>
    <TranslatedText>Related</TranslatedText>
  </Decode>
</CodeListItem>
</CodeList>
<CodeList OID="CodeList.RELGR1N"
Name="RELGR1N"
DataType="integer">
<CodeListItem CodedValue="0" OrderNumber="1">
  <Decode>
    <TranslatedText>Not related</TranslatedText>
  </Decode>
</CodeListItem>
<CodeListItem CodedValue="1" OrderNumber="1">
  <Decode>
    <TranslatedText>Related</TranslatedText>
  </Decode>
</CodeListItem>
</CodeList>
<CodeList OID="CodeList.SEX"
Name="SEX"
DataType="text">
<CodeListItem CodedValue="F" OrderNumber="1">
  <Decode>
    <TranslatedText>FEMALE</TranslatedText>
  </Decode>
</CodeListItem>
<CodeListItem CodedValue="M" OrderNumber="2">
  <Decode>
    <TranslatedText>MALE</TranslatedText>
  </Decode>
</CodeListItem>
<CodeListItem CodedValue="U" OrderNumber="3">
  <Decode>
    <TranslatedText>UNKNOWN</TranslatedText>
  </Decode>
</CodeListItem>
</CodeList>
<CodeList OID="CodeList.TRT01PN"
Name="TRT01PN"
DataType="integer">
<CodeListItem CodedValue="1" OrderNumber="2">
  <Decode>
    <TranslatedText>Analgezia HCL 30 mg</TranslatedText>
  </Decode>
</CodeListItem>
<CodeListItem CodedValue="0" OrderNumber="1">
  <Decode>
    <TranslatedText>Placebo</TranslatedText>
  </Decode>
</CodeListItem>
</CodeList>
<CodeList OID="CodeList.VISIT"
Name="VISIT"
DataType="text">
<CodeListItem CodedValue="Baseline" OrderNumber="1">
  <Decode>
    <TranslatedText>Baseline</TranslatedText>
  </Decode>
</CodeListItem>
<CodeListItem CodedValue="Month 3" OrderNumber="2">
  <Decode>
    <TranslatedText>Month 3</TranslatedText>
  </Decode>
</CodeListItem>
<CodeListItem CodedValue="Month 6" OrderNumber="3">
  <Decode>
    <TranslatedText>Month 6</TranslatedText>
  </Decode>
</CodeListItem>
</CodeList>
<CodeList OID="CodeList.VISITNUM"
Name="VISITNUM"
DataType="text">
<CodeListItem CodedValue="0" OrderNumber="1">
  <Decode>
    <TranslatedText>Baseline</TranslatedText>
  </Decode>
</CodeListItem>
<CodeListItem CodedValue="1" OrderNumber="2">
  <Decode>
    <TranslatedText>Month 3</TranslatedText>
  </Decode>
</CodeListItem>
<CodeListItem CodedValue="2" OrderNumber="3">
  <Decode>
    <TranslatedText>Month 6</TranslatedText>
  </Decode>
</CodeListItem>
</CodeList>
<CodeList OID="CodeList.YN"
Name="YN"
DataType="text">
<CodeListItem CodedValue="Y" OrderNumber="2">
  <Decode>
    <TranslatedText>YES</TranslatedText>
  </Decode>
</CodeListItem>
<CodeListItem CodedValue="N" OrderNumber="1">
  <Decode>
    <TranslatedText>NO</TranslatedText>
  </Decode>
</CodeListItem>
</CodeList>

  <!-- ****************************************************************** -->
  <!-- WhereClause Definitions Used/Referenced in Value List Definitions) -->
  <!-- ****************************************************************** -->
<def:WhereClauseDef OID="WC.LB.LBTESTCD.GLUC.LBCAT.CHEMISTRY">
<RangeCheck SoftHard="Soft" def:ItemOID="LB.LBCAT" Comparator="EQ">
  <CheckValue>CHEMISTRY</CheckValue>
  </RangeCheck>
  </def:WhereClauseDef>
<def:WhereClauseDef OID="WC.LB.LBTESTCD.GLUC.LBCAT.CHEMISTRY">
<RangeCheck SoftHard="Soft" def:ItemOID="LB.LBTESTCD" Comparator="EQ">
  <CheckValue>GLUC</CheckValue>
  </RangeCheck>
  </def:WhereClauseDef>
<def:WhereClauseDef OID="WC.LB.LBTESTCD.GLUC.LBCAT.URINALYSIS">
<RangeCheck SoftHard="Soft" def:ItemOID="LB.LBCAT" Comparator="EQ">
  <CheckValue>URINALYSIS</CheckValue>
  </RangeCheck>
  </def:WhereClauseDef>
<def:WhereClauseDef OID="WC.LB.LBTESTCD.GLUC.LBCAT.URINALYSIS">
<RangeCheck SoftHard="Soft" def:ItemOID="LB.LBTESTCD" Comparator="EQ">
  <CheckValue>GLUC</CheckValue>
  </RangeCheck>
  </def:WhereClauseDef>
<def:WhereClauseDef OID="WC.ITTFL">
<RangeCheck SoftHard="Soft" def:ItemOID="ADSL.ITTFL" Comparator="EQ">
  <CheckValue>Y</CheckValue>
  </RangeCheck>
  </def:WhereClauseDef>
<def:WhereClauseDef OID="WC.Table_14.2.1.1">
<RangeCheck SoftHard="Soft" def:ItemOID="ADEF.ITTFL" Comparator="EQ">
  <CheckValue>Y</CheckValue>
  </RangeCheck>
  </def:WhereClauseDef>
<def:WhereClauseDef OID="WC.Table_14.2.1.1">
<RangeCheck SoftHard="Soft" def:ItemOID="ADEF.ABLFL" Comparator="NE">
  <CheckValue>Y</CheckValue>
  </RangeCheck>
  </def:WhereClauseDef>
<def:WhereClauseDef OID="WC.Table_14.2.1.1">
<RangeCheck SoftHard="Soft" def:ItemOID="ADEF.PARAMCD" Comparator="EQ">
  <CheckValue>XPPAIN</CheckValue>
  </RangeCheck>
  </def:WhereClauseDef>
<def:WhereClauseDef OID="WC.Figure_14.2.1.1">
<RangeCheck SoftHard="Soft" def:ItemOID="ADTTE.ITTFL" Comparator="EQ">
  <CheckValue>Y</CheckValue>
  </RangeCheck>
  </def:WhereClauseDef>
<def:WhereClauseDef OID="WC.Figure_14.2.1.1">
<RangeCheck SoftHard="Soft" def:ItemOID="ADTTE.PARAMCD" Comparator="EQ">
  <CheckValue>TTPNRELF</CheckValue>
  </RangeCheck>
  </def:WhereClauseDef>
<def:WhereClauseDef OID="WC.Table_14.3.2.1">
<RangeCheck SoftHard="Soft" def:ItemOID="ADAE.TRTEMFL" Comparator="EQ">
  <CheckValue>Y</CheckValue>
  </RangeCheck>
  </def:WhereClauseDef>

  <!-- ******************************** -->
  <!-- COMMENTS DEFINITION SECTION      -->
  <!-- ******************************** -->
<def:CommentDef OID="COM.CRIT1">
  <Description>
    <TranslatedText xml:lang="en">Assignment per the codelist</TranslatedText>
  </Description>
</def:CommentDef>
<def:CommentDef OID="COM.CQ01NAME">
  <Description>
    <TranslatedText xml:lang="en">if non-null then PAIN EVENT</TranslatedText>
  </Description>
</def:CommentDef>
<def:CommentDef OID="COM.SEECODELIST">
  <Description>
    <TranslatedText xml:lang="en">See codelist</TranslatedText>
  </Description>
</def:CommentDef>
<def:CommentDef OID="COM.SEEVALUELEVEL">
  <Description>
    <TranslatedText xml:lang="en">See parameter value-level metadata</TranslatedText>
  </Description>
</def:CommentDef>
<def:CommentDef OID="COM.ADAE">
  <Description>
    <TranslatedText xml:lang="en">Primarily derived from SDTM.AE</TranslatedText>
  </Description>
</def:CommentDef>
<def:CommentDef OID="COM.ADSL">
  <Description>
    <TranslatedText xml:lang="en">Derived from multiple SDTM domains</TranslatedText>
  </Description>
</def:CommentDef>
<def:CommentDef OID="COM.ADEF">
  <Description>
    <TranslatedText xml:lang="en">Primarily derived from SDTM.XP</TranslatedText>
  </Description>
</def:CommentDef>
<def:CommentDef OID="COM.ADTTE">
  <Description>
    <TranslatedText xml:lang="en">Primarily derived from ADaM.ADAE</TranslatedText>
  </Description>
</def:CommentDef>

  <!-- ******************************************* -->
  <!-- EXTERNAL DOCUMENT REFERENCE             *** -->
  <!-- ******************************************* -->
<def:SupplementalDoc>
  <def:DocumentRef leafID="ADRG"/>
</def:SupplementalDoc>

    <!-- ******************************************* -->
    <!-- LEAF DEFINITION SECTION                 *** -->
    <!-- ******************************************* -->
<def:leaf ID="ADRG"
  xlink:href="reviewersguide.pdf">
  <def:title>Analysis Data Reviewer's Guide</def:title>
</def:leaf>
<def:leaf ID="SAP_Section_9.1.1"
  xlink:href="..\..\..\..\53-clin-stud-rep\535-rep-effic-safety-stud\5351-stud-rep-contr\studyxyz123\studyxyz123_csr.pdf">
  <def:title>SAP Section 9.1.1</def:title>
</def:leaf>
<def:leaf ID="SAP_Section_9.2.1"
  xlink:href="..\..\..\..\53-clin-stud-rep\535-rep-effic-safety-stud\5351-stud-rep-contr\studyxyz123\studyxyz123_csr.pdf">
  <def:title>SAP Section 9.2.1</def:title>
</def:leaf>
<def:leaf ID="SAP_Section_9.2.2"
  xlink:href="..\..\..\..\53-clin-stud-rep\535-rep-effic-safety-stud\5351-stud-rep-contr\studyxyz123\studyxyz123_csr.pdf">
  <def:title>SAP Section 9.2.2</def:title>
</def:leaf>
<def:leaf ID="SAP_Section_9.3.1"
  xlink:href="..\..\..\..\53-clin-stud-rep\535-rep-effic-safety-stud\5351-stud-rep-contr\studyxyz123\studyxyz123_csr.pdf">
  <def:title>SAP Section 9.3.1</def:title>
</def:leaf>
<def:leaf ID="Table_14.1.1"
  xlink:href="..\..\..\..\53-clin-stud-rep\535-rep-effic-safety-stud\5351-stud-rep-contr\studyxyz123\studyxyz123_csr.pdf">
  <def:title>Table 14.1.1</def:title>
</def:leaf>
<def:leaf ID="Table_14.2.1"
  xlink:href="..\..\..\..\53-clin-stud-rep\535-rep-effic-safety-stud\5351-stud-rep-contr\studyxyz123\studyxyz123_csr.pdf">
  <def:title>Table 14.2.1</def:title>
</def:leaf>
<def:leaf ID="Table_14.2.2"
  xlink:href="..\..\..\..\53-clin-stud-rep\535-rep-effic-safety-stud\5351-stud-rep-contr\studyxyz123\studyxyz123_csr.pdf">
  <def:title>Table 14.2.2</def:title>
</def:leaf>
<def:leaf ID="Figure_14.2.1"
  xlink:href="..\..\..\..\53-clin-stud-rep\535-rep-effic-safety-stud\5351-stud-rep-contr\studyxyz123\studyxyz123_csr.pdf">
  <def:title>Figure 14.2.1</def:title>
</def:leaf>
<def:leaf ID="ae-t14-3-02"
  xlink:href="ae-t14-3-02.sas">
  <def:title>AE Analysis Program</def:title>
</def:leaf>
<!-- ************************************************************ -->
    <!-- Analysis Results MetaData are Presented Below                -->
    <!-- ************************************************************ -->
    <arm:AnalysisResultDisplays>
<arm:ResultDisplay OID="RD.Table 14.1.1" Name="Table 14.1.1">
      <Description>
          <TranslatedText xml:lang="en">Comparisons of participant disposition by treatment group</TranslatedText>
      </Description>
      <def:DocumentRef leafID="Table 14.1.1">
        <def:PDFPageRef PageRefs="302" Type="PhysicalRef"/>
      </def:DocumentRef>
      <arm:AnalysisResult
        OID="Table 14.1.1"
        ParameterOID="ADSL.N/A"
        ResultIdentifier="Table 14.1.1"
        AnalysisReason="SPECIFIED IN SAP"
        AnalysisPurpose="Comparisons of participant disposition by treatment group">
        <Description>
          <TranslatedText xml:lang="en">Summary of Participant Disposition</TranslatedText>
        </Description>
        <arm:AnalysisDatasets>
          <arm:AnalysisDataset ItemGroupOID="ADSL" >
          <def:WhereClauseRef WhereClauseOID="WC.Table 14.1.1" />

        <arm:AnalysisVariable ItemOID="ADSL.AGE"/>
<arm:AnalysisVariable ItemOID="ADSL.AGEGR1"/>
<arm:AnalysisVariable ItemOID="ADSL.SEX"/>
<arm:AnalysisVariable ItemOID="ADSL.RACE"/>

          </arm:AnalysisDataset>
        </arm:AnalysisDatasets>
        <arm:Documentation>
        <Description>
          <TranslatedText xml:lang="en">Rates and chi-squared tests of categorical participant disposition variables</TranslatedText>
        </Description>
        <def:DocumentRef  leafID="SAP_Section_13.2.2">
        </def:DocumentRef>
        </arm:Documentation>

        <arm:ProgrammingCode Context="R Version 4.0.3 (2020-10-10)">
        <arm:Code>
PROC FREQ DATA=ADSL; where ittfl='Y';  tables trt01pn * (agegr1 sex race) / cmh; run;
        </arm:Code>
        </arm:ProgrammingCode>
      </arm:AnalysisResult>
    </arm:ResultDisplay>
<arm:ResultDisplay OID="RD.Table 14.1.2" Name="Table 14.1.2">
      <Description>
          <TranslatedText xml:lang="en">Comparisons of protocol deviations by treatment group</TranslatedText>
      </Description>
      <def:DocumentRef leafID="Table 14.1.2">
        <def:PDFPageRef PageRefs="302" Type="PhysicalRef"/>
      </def:DocumentRef>
      <arm:AnalysisResult
        OID="Table 14.1.2"
        ParameterOID="ADEF.N/A"
        ResultIdentifier="Table 14.1.2"
        AnalysisReason="SPECIFIED IN SAP"
        AnalysisPurpose="Comparisons of protocol deviations by treatment group">
        <Description>
          <TranslatedText xml:lang="en">Summary of Protocol Deviations</TranslatedText>
        </Description>
        <arm:AnalysisDatasets>
          <arm:AnalysisDataset ItemGroupOID="ADEF" >
          <def:WhereClauseRef WhereClauseOID="WC.Table 14.1.2" />

        <arm:AnalysisVariable ItemOID="ADEF.CRIT1FL"/>

          </arm:AnalysisDataset>
        </arm:AnalysisDatasets>
        <arm:Documentation>
        <Description>
          <TranslatedText xml:lang="en">Rates and chi-squared tests of categorical protocol deviation variables</TranslatedText>
        </Description>
        <def:DocumentRef  leafID="SAP_Section_13.2.3">
        </def:DocumentRef>
        </arm:Documentation>

        <arm:ProgrammingCode Context="R Version 4.0.3 (2020-10-10)">
        <arm:Code>
proc freq data = adef; by crit1 avisitn; where ittfl='Y'; tables trtpn * crit1fl / chisq; run;
        </arm:Code>
        </arm:ProgrammingCode>
      </arm:AnalysisResult>
    </arm:ResultDisplay>
<arm:ResultDisplay OID="RD.Table 14.1.3" Name="Table 14.1.3">
      <Description>
          <TranslatedText xml:lang="en">Comparisons of baseline characteristics by treatment group</TranslatedText>
      </Description>
      <def:DocumentRef leafID="Table 14.1.3">
        <def:PDFPageRef PageRefs="302" Type="PhysicalRef"/>
      </def:DocumentRef>
      <arm:AnalysisResult
        OID="Table 14.1.3"
        ParameterOID="ADEF.N/A"
        ResultIdentifier="Table 14.1.3"
        AnalysisReason="SPECIFIED IN SAP"
        AnalysisPurpose="Comparisons of baseline characteristics by treatment group">
        <Description>
          <TranslatedText xml:lang="en">Summary of Demographic Data</TranslatedText>
        </Description>
        <arm:AnalysisDatasets>
          <arm:AnalysisDataset ItemGroupOID="ADEF" >
          <def:WhereClauseRef WhereClauseOID="WC.Table 14.1.3" />

        <arm:AnalysisVariable ItemOID="ADEF.AVAL"/>
<arm:AnalysisVariable ItemOID="ADEF.CHG"/>

          </arm:AnalysisDataset>
        </arm:AnalysisDatasets>
        <arm:Documentation>
        <Description>
          <TranslatedText xml:lang="en">Rates and chi-squared tests of categorical demographic variables</TranslatedText>
        </Description>
        <def:DocumentRef  leafID="SAP_Section_13.2.4">
        </def:DocumentRef>
        </arm:Documentation>

        <arm:ProgrammingCode Context="R Version 4.0.3 (2020-10-10)">
        <arm:Code>
proc glm data = adef; by avisitn avisit; class trtpn; model aval = trtpn base; run;
        </arm:Code>
        </arm:ProgrammingCode>
      </arm:AnalysisResult>
    </arm:ResultDisplay>
<arm:ResultDisplay OID="RD.Table 14.1.4" Name="Table 14.1.4">
      <Description>
          <TranslatedText xml:lang="en">Comparisons of occular medical histories by treatment group</TranslatedText>
      </Description>
      <def:DocumentRef leafID="Table 14.1.4">
        <def:PDFPageRef PageRefs="302" Type="PhysicalRef"/>
      </def:DocumentRef>
      <arm:AnalysisResult
        OID="Table 14.1.4"
        ParameterOID="ADTTE.N/A"
        ResultIdentifier="Table 14.1.4"
        AnalysisReason="SPECIFIED IN SAP"
        AnalysisPurpose="Comparisons of occular medical histories by treatment group">
        <Description>
          <TranslatedText xml:lang="en">Summary of History of Dry Eye Disease</TranslatedText>
        </Description>
        <arm:AnalysisDatasets>
          <arm:AnalysisDataset ItemGroupOID="ADTTE" >
          <def:WhereClauseRef WhereClauseOID="WC.Table 14.1.4" />

        <arm:AnalysisVariable ItemOID="ADTTE.AVAL"/>

          </arm:AnalysisDataset>
        </arm:AnalysisDatasets>
        <arm:Documentation>
        <Description>
          <TranslatedText xml:lang="en">Rates and chi-squared tests of categorical history of dry eye disease variables</TranslatedText>
        </Description>
        <def:DocumentRef  leafID="SAP_Section_13.2.5">
        </def:DocumentRef>
        </arm:Documentation>

        <arm:ProgrammingCode Context="R Version 4.0.3 (2020-10-10)">
        <arm:Code>
proc lifetest  data = adtte plots=s;  where ittfl = 'Y' and paramcd = 'TTPNRELF';  id usubjid;  strata trtpn;  time aval*cnsr (1 2 3);   test trtpn; run;
        </arm:Code>
        </arm:ProgrammingCode>
      </arm:AnalysisResult>
    </arm:ResultDisplay>
<arm:ResultDisplay OID="RD.Table 14.1.5" Name="Table 14.1.5">
      <Description>
          <TranslatedText xml:lang="en">Comparisons of non-occular medical histories by treatment group</TranslatedText>
      </Description>
      <def:DocumentRef leafID="Table 14.1.5">
        <def:PDFPageRef PageRefs="302" Type="PhysicalRef"/>
      </def:DocumentRef>
      <arm:AnalysisResult
        OID="Table 14.1.5"
        ParameterOID="ADTTE.N/A"
        ResultIdentifier="Table 14.1.5"
        AnalysisReason="SPECIFIED IN SAP"
        AnalysisPurpose="Comparisons of non-occular medical histories by treatment group">
        <Description>
          <TranslatedText xml:lang="en">Summary of Medical History</TranslatedText>
        </Description>
        <arm:AnalysisDatasets>
          <arm:AnalysisDataset ItemGroupOID="ADTTE" >
          <def:WhereClauseRef WhereClauseOID="WC.Table 14.1.5" />

        <arm:AnalysisVariable ItemOID="ADTTE.AVAL"/>

          </arm:AnalysisDataset>
        </arm:AnalysisDatasets>
        <arm:Documentation>
        <Description>
          <TranslatedText xml:lang="en">Rates and chi-squared tests of categorical medical history variables</TranslatedText>
        </Description>
        <def:DocumentRef  leafID="SAP_Section_13.2.5">
        </def:DocumentRef>
        </arm:Documentation>

        <arm:ProgrammingCode Context="R Version 4.0.3 (2020-10-10)">
        <arm:Code>
proc phreg data = adtte; model aval*cnsr(1, 2, 3) = trtpn; run;
        </arm:Code>
        </arm:ProgrammingCode>
      </arm:AnalysisResult>
    </arm:ResultDisplay>
<arm:ResultDisplay OID="RD.Table 14.1.6" Name="Table 14.1.6">
      <Description>
          <TranslatedText xml:lang="en">Comparisons of prior and concomitant medications by treatment group</TranslatedText>
      </Description>
      <def:DocumentRef leafID="Table 14.1.6">
        <def:PDFPageRef PageRefs="302" Type="PhysicalRef"/>
      </def:DocumentRef>
      <arm:AnalysisResult
        OID="Table 14.1.6"
        ParameterOID="ADAE.N/A"
        ResultIdentifier="Table 14.1.6"
        AnalysisReason="SPECIFIED IN SAP"
        AnalysisPurpose="Comparisons of prior and concomitant medications by treatment group">
        <Description>
          <TranslatedText xml:lang="en">Summary of Prior & Concomitant Medications</TranslatedText>
        </Description>
        <arm:AnalysisDatasets>
          <arm:AnalysisDataset ItemGroupOID="ADAE" >
          <def:WhereClauseRef WhereClauseOID="WC.Table 14.1.6" />

        <arm:AnalysisVariable ItemOID="ADAE.AEBODSYS"/>
<arm:AnalysisVariable ItemOID="ADAE.AEDECOD"/>

          </arm:AnalysisDataset>
        </arm:AnalysisDatasets>
        <arm:Documentation>
        <Description>
          <TranslatedText xml:lang="en">Rates and chi-squared tests of categorical prior and concomitant medication variables</TranslatedText>
        </Description>
        <def:DocumentRef  leafID="SAP_Section_13.2.6">
        </def:DocumentRef>
        </arm:Documentation>

        <arm:ProgrammingCode Context="R Version 4.0.3 (2020-10-10)">
        <arm:Code>
NA
        </arm:Code>
        </arm:ProgrammingCode>
      </arm:AnalysisResult>
    </arm:ResultDisplay>
<arm:ResultDisplay OID="RD.Table 14.1.7" Name="Table 14.1.7">
      <Description>
          <TranslatedText xml:lang="en">Comparisons of treatment exposure by treatment group</TranslatedText>
      </Description>
      <def:DocumentRef leafID="Table 14.1.7">
        <def:PDFPageRef PageRefs="302" Type="PhysicalRef"/>
      </def:DocumentRef>
      <arm:AnalysisResult
        OID="Table 14.1.7"
        ParameterOID="NA.N/A"
        ResultIdentifier="Table 14.1.7"
        AnalysisReason="SPECIFIED IN SAP"
        AnalysisPurpose="Comparisons of treatment exposure by treatment group">
        <Description>
          <TranslatedText xml:lang="en">Summary of Exposure</TranslatedText>
        </Description>
        <arm:AnalysisDatasets>
          <arm:AnalysisDataset ItemGroupOID="NA" >
          <def:WhereClauseRef WhereClauseOID="WC.Table 14.1.7" />

        <arm:AnalysisVariable ItemOID="NA.NA"/>

          </arm:AnalysisDataset>
        </arm:AnalysisDatasets>
        <arm:Documentation>
        <Description>
          <TranslatedText xml:lang="en">Rates and chi-squared tests of categorical treatment exposure variables</TranslatedText>
        </Description>
        <def:DocumentRef  leafID="SAP_Section_13.2.7">
        </def:DocumentRef>
        </arm:Documentation>

        <arm:ProgrammingCode Context="R Version 4.0.3 (2020-10-10)">
        <arm:Code>
NA
        </arm:Code>
        </arm:ProgrammingCode>
      </arm:AnalysisResult>
    </arm:ResultDisplay>
<arm:ResultDisplay OID="RD.Table 14.1.8" Name="Table 14.1.8">
      <Description>
          <TranslatedText xml:lang="en">Comparisons of treatment compliance by treatment group</TranslatedText>
      </Description>
      <def:DocumentRef leafID="Table 14.1.8">
        <def:PDFPageRef PageRefs="302" Type="PhysicalRef"/>
      </def:DocumentRef>
      <arm:AnalysisResult
        OID="Table 14.1.8"
        ParameterOID="NA.N/A"
        ResultIdentifier="Table 14.1.8"
        AnalysisReason="SPECIFIED IN SAP"
        AnalysisPurpose="Comparisons of treatment compliance by treatment group">
        <Description>
          <TranslatedText xml:lang="en">Summary of Treatment Compliance</TranslatedText>
        </Description>
        <arm:AnalysisDatasets>
          <arm:AnalysisDataset ItemGroupOID="NA" >
          <def:WhereClauseRef WhereClauseOID="WC.Table 14.1.8" />

        <arm:AnalysisVariable ItemOID="NA.NA"/>

          </arm:AnalysisDataset>
        </arm:AnalysisDatasets>
        <arm:Documentation>
        <Description>
          <TranslatedText xml:lang="en">Rates and chi-squared tests of categorical treatment compliance variables</TranslatedText>
        </Description>
        <def:DocumentRef  leafID="SAP_Section_13.2.7">
        </def:DocumentRef>
        </arm:Documentation>

        <arm:ProgrammingCode Context="R Version 4.0.3 (2020-10-10)">
        <arm:Code>
NA
        </arm:Code>
        </arm:ProgrammingCode>
      </arm:AnalysisResult>
    </arm:ResultDisplay>
<arm:ResultDisplay OID="RD.Table 14.2.1.1" Name="Table 14.2.1.1">
      <Description>
          <TranslatedText xml:lang="en">Mean SANDE Nightly Global Assessments and Changes from Baseline</TranslatedText>
      </Description>
      <def:DocumentRef leafID="Table 14.2.1.1">
        <def:PDFPageRef PageRefs="302" Type="PhysicalRef"/>
      </def:DocumentRef>
      <arm:AnalysisResult
        OID="Table 14.2.1.1"
        ParameterOID="ADEF.SANDNGOU"
        ResultIdentifier="Table 14.2.1.1"
        AnalysisReason="SPECIFIED IN SAP"
        AnalysisPurpose="Primary efficacy endpoint">
        <Description>
          <TranslatedText xml:lang="en">Summary of Symptom Assessment iN Dry Eye Questionnaire (SANDE) - Global Score for Nightly Non-Scleral Lens Wear, Change from Baseline at 12-Weeks</TranslatedText>
        </Description>
        <arm:AnalysisDatasets>
          <arm:AnalysisDataset ItemGroupOID="ADEF" >
          <def:WhereClauseRef WhereClauseOID="WC.Table 14.2.1.1" />

        <arm:AnalysisVariable ItemOID="ADEF.AVAL"/>
<arm:AnalysisVariable ItemOID="ADEF.CHG"/>

          </arm:AnalysisDataset>
        </arm:AnalysisDatasets>
        <arm:Documentation>
        <Description>
          <TranslatedText xml:lang="en">ANCOVA analysis of the treatment group effect with a baseline covariate, by visit</TranslatedText>
        </Description>
        <def:DocumentRef  leafID="SAP_Section_13.3.1">
        </def:DocumentRef>
        </arm:Documentation>

        <arm:ProgrammingCode Context="R Version 4.0.3 (2020-10-10)">
        <arm:Code>
NA
        </arm:Code>
        </arm:ProgrammingCode>
      </arm:AnalysisResult>
    </arm:ResultDisplay>
<arm:ResultDisplay OID="RD.Table 14.2.1.2" Name="Table 14.2.1.2">
      <Description>
          <TranslatedText xml:lang="en">Mean Central Corneal Staining Assessments and Changes from Baseline</TranslatedText>
      </Description>
      <def:DocumentRef leafID="Table 14.2.1.2">
        <def:PDFPageRef PageRefs="302" Type="PhysicalRef"/>
      </def:DocumentRef>
      <arm:AnalysisResult
        OID="Table 14.2.1.2"
        ParameterOID="ADEF.CFSCLTOU"
        ResultIdentifier="Table 14.2.1.2"
        AnalysisReason="SPECIFIED IN SAP"
        AnalysisPurpose="Secondary efficacy endpoint">
        <Description>
          <TranslatedText xml:lang="en">Summary of Corneal Staining, Central Region, Change from Baseline at 12-Weeks</TranslatedText>
        </Description>
        <arm:AnalysisDatasets>
          <arm:AnalysisDataset ItemGroupOID="ADEF" >
          <def:WhereClauseRef WhereClauseOID="WC.Table 14.2.1.2" />

        <arm:AnalysisVariable ItemOID="ADEF.AVAL"/>
<arm:AnalysisVariable ItemOID="ADEF.CHG"/>

          </arm:AnalysisDataset>
        </arm:AnalysisDatasets>
        <arm:Documentation>
        <Description>
          <TranslatedText xml:lang="en">ANCOVA analysis of the treatment group effect with a baseline covariate, by visit</TranslatedText>
        </Description>
        <def:DocumentRef  leafID="SAP_Section_13.3.2.1">
        </def:DocumentRef>
        </arm:Documentation>

        <arm:ProgrammingCode Context="R Version 4.0.3 (2020-10-10)">
        <arm:Code>
NA
        </arm:Code>
        </arm:ProgrammingCode>
      </arm:AnalysisResult>
    </arm:ResultDisplay>
<arm:ResultDisplay OID="RD.Table 14.2.1.3" Name="Table 14.2.1.3">
      <Description>
          <TranslatedText xml:lang="en">Mean Modified GODSDS Blurred or Cloudy Vision Assessments and Changes from Baseline</TranslatedText>
      </Description>
      <def:DocumentRef leafID="Table 14.2.1.3">
        <def:PDFPageRef PageRefs="302" Type="PhysicalRef"/>
      </def:DocumentRef>
      <arm:AnalysisResult
        OID="Table 14.2.1.3"
        ParameterOID="ADEF.GOSDBKOU"
        ResultIdentifier="Table 14.2.1.3"
        AnalysisReason="SPECIFIED IN SAP"
        AnalysisPurpose="Secondary efficacy endpoint">
        <Description>
          <TranslatedText xml:lang="en">Summary of Modified Glia Ocular Surface Disease Symptoms Questionnaire (GOSDS) - Blurred or Cloudy Vision Score (while wearing scleral lenses), Change from Baseline at 12-Weeks</TranslatedText>
        </Description>
        <arm:AnalysisDatasets>
          <arm:AnalysisDataset ItemGroupOID="ADEF" >
          <def:WhereClauseRef WhereClauseOID="WC.Table 14.2.1.3" />

        <arm:AnalysisVariable ItemOID="ADEF.AVAL"/>
<arm:AnalysisVariable ItemOID="ADEF.CHG"/>

          </arm:AnalysisDataset>
        </arm:AnalysisDatasets>
        <arm:Documentation>
        <Description>
          <TranslatedText xml:lang="en">ANCOVA analysis of the treatment group effect with a baseline covariate, by visit</TranslatedText>
        </Description>
        <def:DocumentRef  leafID="SAP_Section_13.3.2.2">
        </def:DocumentRef>
        </arm:Documentation>

        <arm:ProgrammingCode Context="R Version 4.0.3 (2020-10-10)">
        <arm:Code>
NA
        </arm:Code>
        </arm:ProgrammingCode>
      </arm:AnalysisResult>
    </arm:ResultDisplay>
<arm:ResultDisplay OID="RD.Table 14.2.2.1" Name="Table 14.2.2.1">
      <Description>
          <TranslatedText xml:lang="en">Mean SANDE Assessments and Changes from Baseline</TranslatedText>
      </Description>
      <def:DocumentRef leafID="Table 14.2.2.1">
        <def:PDFPageRef PageRefs="302" Type="PhysicalRef"/>
      </def:DocumentRef>
      <arm:AnalysisResult
        OID="Table 14.2.2.1"
        ParameterOID="ADEF.SANDFDOS
SANDFDOD
SANDFDOU
SANDSDOS
SANDSDOD
SANDSDOU
SANDGDOS
SANDGDOD
SANDFDOU
SANDFNOS
SANDFNOD
SANDFNOU
SANDSNOS
SANDSNOD
SANDSNOU
SANDGNOS
SANDGNOD"
        ResultIdentifier="Table 14.2.2.1"
        AnalysisReason="SPECIFIED IN SAP"
        AnalysisPurpose="Exploratory efficacy endpoint">
        <Description>
          <TranslatedText xml:lang="en">Summary of Symptom Assessment iN Dry Eye Questionnaire (SANDE) - All Scores, Daily and Nightly by Visit (Observed)</TranslatedText>
        </Description>
        <arm:AnalysisDatasets>
          <arm:AnalysisDataset ItemGroupOID="ADEF" >
          <def:WhereClauseRef WhereClauseOID="WC.Table 14.2.2.1" />

        <arm:AnalysisVariable ItemOID="ADEF.AVAL"/>
<arm:AnalysisVariable ItemOID="ADEF.CHG"/>

          </arm:AnalysisDataset>
        </arm:AnalysisDatasets>
        <arm:Documentation>
        <Description>
          <TranslatedText xml:lang="en">ANCOVA analysis of the treatment group effect with a baseline covariate, by visit</TranslatedText>
        </Description>
        <def:DocumentRef  leafID="SAP_Section_13.3.4">
        </def:DocumentRef>
        </arm:Documentation>

        <arm:ProgrammingCode Context="R Version 4.0.3 (2020-10-10)">
        <arm:Code>
NA
        </arm:Code>
        </arm:ProgrammingCode>
      </arm:AnalysisResult>
    </arm:ResultDisplay>
<arm:ResultDisplay OID="RD.Table 14.2.2.2" Name="Table 14.2.2.2">
      <Description>
          <TranslatedText xml:lang="en">Mean Modified GOSDS Assessments and Changes from Baseline</TranslatedText>
      </Description>
      <def:DocumentRef leafID="Table 14.2.2.2">
        <def:PDFPageRef PageRefs="302" Type="PhysicalRef"/>
      </def:DocumentRef>
      <arm:AnalysisResult
        OID="Table 14.2.2.2"
        ParameterOID="ADEF.GOSDDIOS
GOSDDIOD
GOSDDIOU
GOSDDROS
GOSDDROD
GOSDDROU
GOSDEROS
GOSDEROD
GOSDEROU
GOSDSNOS
GOSDSNOD
GOSDSNOU
GOSDBKOS
GOSDBKOD
GOSDSDIS"
        ResultIdentifier="Table 14.2.2.2"
        AnalysisReason="SPECIFIED IN SAP"
        AnalysisPurpose="Exploratory efficacy endpoint">
        <Description>
          <TranslatedText xml:lang="en">Summary of Modified Glia Ocular Surface Disease Symptoms Questionnaire (GOSDS) - All Scores, by Visit (Observed)</TranslatedText>
        </Description>
        <arm:AnalysisDatasets>
          <arm:AnalysisDataset ItemGroupOID="ADEF" >
          <def:WhereClauseRef WhereClauseOID="WC.Table 14.2.2.2" />

        <arm:AnalysisVariable ItemOID="ADEF.AVAL"/>
<arm:AnalysisVariable ItemOID="ADEF.CHG"/>

          </arm:AnalysisDataset>
        </arm:AnalysisDatasets>
        <arm:Documentation>
        <Description>
          <TranslatedText xml:lang="en">ANCOVA analysis of the treatment group effect with a baseline covariate, by visit</TranslatedText>
        </Description>
        <def:DocumentRef  leafID="SAP_Section_13.3.4">
        </def:DocumentRef>
        </arm:Documentation>

        <arm:ProgrammingCode Context="R Version 4.0.3 (2020-10-10)">
        <arm:Code>
NA
        </arm:Code>
        </arm:ProgrammingCode>
      </arm:AnalysisResult>
    </arm:ResultDisplay>
<arm:ResultDisplay OID="RD.Table 14.2.2.3" Name="Table 14.2.2.3">
      <Description>
          <TranslatedText xml:lang="en">Mean SLWGQ Assessments and Changes from Baseline</TranslatedText>
      </Description>
      <def:DocumentRef leafID="Table 14.2.2.3">
        <def:PDFPageRef PageRefs="302" Type="PhysicalRef"/>
      </def:DocumentRef>
      <arm:AnalysisResult
        OID="Table 14.2.2.3"
        ParameterOID="ADEF.SLWGQ1OS
SLWGQ1OD
SLWGQ1OU
SLWGQ2OS
SLWQG2OD
SLWGQ2OU
SLWGQ3OS
SLWGQ3OD
SLWGQ3OU
SLWGQ4OS
SLWGQ4OD
SLWGQ4OU"
        ResultIdentifier="Table 14.2.2.3"
        AnalysisReason="SPECIFIED IN SAP"
        AnalysisPurpose="Exploratory efficacy endpoint">
        <Description>
          <TranslatedText xml:lang="en">Summary of Scleral Lens Wear Glia Questionnaire (SLWGQ) - All Scores, by Visit (Observed)</TranslatedText>
        </Description>
        <arm:AnalysisDatasets>
          <arm:AnalysisDataset ItemGroupOID="ADEF" >
          <def:WhereClauseRef WhereClauseOID="WC.Table 14.2.2.3" />

        <arm:AnalysisVariable ItemOID="ADEF.AVAL"/>
<arm:AnalysisVariable ItemOID="ADEF.CHG"/>

          </arm:AnalysisDataset>
        </arm:AnalysisDatasets>
        <arm:Documentation>
        <Description>
          <TranslatedText xml:lang="en">ANCOVA analysis of the treatment group effect with a baseline covariate, by visit</TranslatedText>
        </Description>
        <def:DocumentRef  leafID="SAP_Section_13.3.4">
        </def:DocumentRef>
        </arm:Documentation>

        <arm:ProgrammingCode Context="R Version 4.0.3 (2020-10-10)">
        <arm:Code>
NA
        </arm:Code>
        </arm:ProgrammingCode>
      </arm:AnalysisResult>
    </arm:ResultDisplay>
<arm:ResultDisplay OID="RD.Table 14.2.2.4" Name="Table 14.2.2.4">
      <Description>
          <TranslatedText xml:lang="en">Mean Corneal and Conjunctival Staining Assessments and Changes from Baseline</TranslatedText>
      </Description>
      <def:DocumentRef leafID="Table 14.2.2.4">
        <def:PDFPageRef PageRefs="302" Type="PhysicalRef"/>
      </def:DocumentRef>
      <arm:AnalysisResult
        OID="Table 14.2.2.4"
        ParameterOID="ADEF.CLSZ1OD
CLSZ1OS
CLSZ1OU
CLSZ2OD
CLSZ2OS
CLSZ2OU
CLSZ3OD
CLSZ3OS
CLSZ3OU
CLSZ4OD
CLSZ4OS
CLSZ5OD
CLSZ5OS
CLSZ5OU
CLSZ6OD
CLSZ6OS
CLSZ6OU
CFSCTLOD
CFSCTLOS
CFSINFOD
CFSINFOS
CFSINFOU
CFSSUPOD
CFSSUPOS
CFSSUPOU
CFSTOTOD
CFSTOTOS
CFSTOTOU"
        ResultIdentifier="Table 14.2.2.4"
        AnalysisReason="SPECIFIED IN SAP"
        AnalysisPurpose="Exploratory efficacy endpoint">
        <Description>
          <TranslatedText xml:lang="en">Summary of Corneal and Conjunctival Staining by All Scores, by Visit (Observed)</TranslatedText>
        </Description>
        <arm:AnalysisDatasets>
          <arm:AnalysisDataset ItemGroupOID="ADEF" >
          <def:WhereClauseRef WhereClauseOID="WC.Table 14.2.2.4" />

        <arm:AnalysisVariable ItemOID="ADEF.AVAL"/>
<arm:AnalysisVariable ItemOID="ADEF.CHG"/>

          </arm:AnalysisDataset>
        </arm:AnalysisDatasets>
        <arm:Documentation>
        <Description>
          <TranslatedText xml:lang="en">ANCOVA analysis of the treatment group effect with a baseline covariate, by visit</TranslatedText>
        </Description>
        <def:DocumentRef  leafID="SAP_Section_13.3.4">
        </def:DocumentRef>
        </arm:Documentation>

        <arm:ProgrammingCode Context="R Version 4.0.3 (2020-10-10)">
        <arm:Code>
NA
        </arm:Code>
        </arm:ProgrammingCode>
      </arm:AnalysisResult>
    </arm:ResultDisplay>
<arm:ResultDisplay OID="RD.Table 14.2.2.5" Name="Table 14.2.2.5">
      <Description>
          <TranslatedText xml:lang="en">Mean Efron Scale Gradding and Changes from Baseline</TranslatedText>
      </Description>
      <def:DocumentRef leafID="Table 14.2.2.5">
        <def:PDFPageRef PageRefs="302" Type="PhysicalRef"/>
      </def:DocumentRef>
      <arm:AnalysisResult
        OID="Table 14.2.2.5"
        ParameterOID="ADEF.EGSNASOD
EGSNASOS
EGSNASOU
EGSULOD
EGSULOS
EGSULOU
EGSTMPOD
EGSTMPOS
EGSTMPOU
EGSNAWOD
EGSNAWOS
EGSNAWOU
EGSULWOD
EGSULWOS
EGSULWOU
EGSTMWOD
EGSTMWOS
EGSTMWOU"
        ResultIdentifier="Table 14.2.2.5"
        AnalysisReason="SPECIFIED IN SAP"
        AnalysisPurpose="Exploratory efficacy endpoint">
        <Description>
          <TranslatedText xml:lang="en">Summary of Eyelid Evaluation and Conjunctival Redness by Efron Scale (EFG), All Scores by Visit (Observed)</TranslatedText>
        </Description>
        <arm:AnalysisDatasets>
          <arm:AnalysisDataset ItemGroupOID="ADEF" >
          <def:WhereClauseRef WhereClauseOID="WC.Table 14.2.2.5" />

        <arm:AnalysisVariable ItemOID="ADEF.AVAL"/>
<arm:AnalysisVariable ItemOID="ADEF.CHG"/>

          </arm:AnalysisDataset>
        </arm:AnalysisDatasets>
        <arm:Documentation>
        <Description>
          <TranslatedText xml:lang="en">ANCOVA analysis of the treatment group effect with a baseline covariate, by visit</TranslatedText>
        </Description>
        <def:DocumentRef  leafID="SAP_Section_13.3.4">
        </def:DocumentRef>
        </arm:Documentation>

        <arm:ProgrammingCode Context="R Version 4.0.3 (2020-10-10)">
        <arm:Code>
NA
        </arm:Code>
        </arm:ProgrammingCode>
      </arm:AnalysisResult>
    </arm:ResultDisplay>
<arm:ResultDisplay OID="RD.Table 14.3.1.1" Name="Table 14.3.1.1">
      <Description>
          <TranslatedText xml:lang="en">Incidence Rates of AEs by System Organ Class and Preferred Term</TranslatedText>
      </Description>
      <def:DocumentRef leafID="Table 14.3.1.1">
        <def:PDFPageRef PageRefs="302" Type="PhysicalRef"/>
      </def:DocumentRef>
      <arm:AnalysisResult
        OID="Table 14.3.1.1"
        ParameterOID="ADAE.N/A"
        ResultIdentifier="Table 14.3.1.1"
        AnalysisReason="SPECIFIED IN SAP"
        AnalysisPurpose="NA">
        <Description>
          <TranslatedText xml:lang="en">Overall Summary of Adverse Events (AE)</TranslatedText>
        </Description>
        <arm:AnalysisDatasets>
          <arm:AnalysisDataset ItemGroupOID="ADAE" >
          <def:WhereClauseRef WhereClauseOID="WC.Table 14.3.1.1" />

        <arm:AnalysisVariable ItemOID="ADAE.AEBODSYS"/>
<arm:AnalysisVariable ItemOID="ADAE.AEDECOD"/>

          </arm:AnalysisDataset>
        </arm:AnalysisDatasets>
        <arm:Documentation>
        <Description>
          <TranslatedText xml:lang="en">Incidence Rates of AEs by System Organ Class and Preferred Term</TranslatedText>
        </Description>
        <def:DocumentRef  leafID="SAP_Section_13.4.1">
        </def:DocumentRef>
        </arm:Documentation>

        <arm:ProgrammingCode Context="R Version 4.0.3 (2020-10-10)">
        <arm:Code>
NA
        </arm:Code>
        </arm:ProgrammingCode>
      </arm:AnalysisResult>
    </arm:ResultDisplay>
<arm:ResultDisplay OID="RD.Table 14.3.1.2" Name="Table 14.3.1.2">
      <Description>
          <TranslatedText xml:lang="en">Incidence Rates of non-TEAEs by System Organ Class and Preferred Term</TranslatedText>
      </Description>
      <def:DocumentRef leafID="Table 14.3.1.2">
        <def:PDFPageRef PageRefs="302" Type="PhysicalRef"/>
      </def:DocumentRef>
      <arm:AnalysisResult
        OID="Table 14.3.1.2"
        ParameterOID="ADAE.N/A"
        ResultIdentifier="Table 14.3.1.2"
        AnalysisReason="SPECIFIED IN SAP"
        AnalysisPurpose="NA">
        <Description>
          <TranslatedText xml:lang="en">Summary of Non-Treatment Emergent AEs (TEAEs) by System Organ Class and Preferred Term</TranslatedText>
        </Description>
        <arm:AnalysisDatasets>
          <arm:AnalysisDataset ItemGroupOID="ADAE" >
          <def:WhereClauseRef WhereClauseOID="WC.Table 14.3.1.2" />

        <arm:AnalysisVariable ItemOID="ADAE.AEBODSYS"/>
<arm:AnalysisVariable ItemOID="ADAE.AEDECOD"/>

          </arm:AnalysisDataset>
        </arm:AnalysisDatasets>
        <arm:Documentation>
        <Description>
          <TranslatedText xml:lang="en">Incidence Rates of non-TEAEs by System Organ Class and Preferred Term</TranslatedText>
        </Description>
        <def:DocumentRef  leafID="SAP_Section_13.4.1">
        </def:DocumentRef>
        </arm:Documentation>

        <arm:ProgrammingCode Context="R Version 4.0.3 (2020-10-10)">
        <arm:Code>
NA
        </arm:Code>
        </arm:ProgrammingCode>
      </arm:AnalysisResult>
    </arm:ResultDisplay>
<arm:ResultDisplay OID="RD.Table 14.3.1.3" Name="Table 14.3.1.3">
      <Description>
          <TranslatedText xml:lang="en">Incidence Rates of TEAEs by System Organ Class and Preferred Term</TranslatedText>
      </Description>
      <def:DocumentRef leafID="Table 14.3.1.3">
        <def:PDFPageRef PageRefs="302" Type="PhysicalRef"/>
      </def:DocumentRef>
      <arm:AnalysisResult
        OID="Table 14.3.1.3"
        ParameterOID="ADAE.N/A"
        ResultIdentifier="Table 14.3.1.3"
        AnalysisReason="SPECIFIED IN SAP"
        AnalysisPurpose="NA">
        <Description>
          <TranslatedText xml:lang="en">Summary of TEAEs by System Organ Class and Preferred Term</TranslatedText>
        </Description>
        <arm:AnalysisDatasets>
          <arm:AnalysisDataset ItemGroupOID="ADAE" >
          <def:WhereClauseRef WhereClauseOID="WC.Table 14.3.1.3" />

        <arm:AnalysisVariable ItemOID="ADAE.AEBODSYS"/>
<arm:AnalysisVariable ItemOID="ADAE.AEDECOD"/>

          </arm:AnalysisDataset>
        </arm:AnalysisDatasets>
        <arm:Documentation>
        <Description>
          <TranslatedText xml:lang="en">Incidence Rates of TEAEs by System Organ Class and Preferred Term</TranslatedText>
        </Description>
        <def:DocumentRef  leafID="SAP_Section_13.4.1">
        </def:DocumentRef>
        </arm:Documentation>

        <arm:ProgrammingCode Context="R Version 4.0.3 (2020-10-10)">
        <arm:Code>
NA
        </arm:Code>
        </arm:ProgrammingCode>
      </arm:AnalysisResult>
    </arm:ResultDisplay>
<arm:ResultDisplay OID="RD.Table 14.3.1.4" Name="Table 14.3.1.4">
      <Description>
          <TranslatedText xml:lang="en">Incidence Rates of Treatement Related TEAEs by System Organ Class and Preferred Term</TranslatedText>
      </Description>
      <def:DocumentRef leafID="Table 14.3.1.4">
        <def:PDFPageRef PageRefs="302" Type="PhysicalRef"/>
      </def:DocumentRef>
      <arm:AnalysisResult
        OID="Table 14.3.1.4"
        ParameterOID="ADAE.N/A"
        ResultIdentifier="Table 14.3.1.4"
        AnalysisReason="SPECIFIED IN SAP"
        AnalysisPurpose="NA">
        <Description>
          <TranslatedText xml:lang="en">Summary of Treatment Related TEAEs by System Organ Class and Preferred Term</TranslatedText>
        </Description>
        <arm:AnalysisDatasets>
          <arm:AnalysisDataset ItemGroupOID="ADAE" >
          <def:WhereClauseRef WhereClauseOID="WC.Table 14.3.1.4" />

        <arm:AnalysisVariable ItemOID="ADAE.AEBODSYS"/>
<arm:AnalysisVariable ItemOID="ADAE.AEDECOD"/>

          </arm:AnalysisDataset>
        </arm:AnalysisDatasets>
        <arm:Documentation>
        <Description>
          <TranslatedText xml:lang="en">Incidence Rates of Treatement Related TEAEs by System Organ Class and Preferred Term</TranslatedText>
        </Description>
        <def:DocumentRef  leafID="SAP_Section_13.4.1">
        </def:DocumentRef>
        </arm:Documentation>

        <arm:ProgrammingCode Context="R Version 4.0.3 (2020-10-10)">
        <arm:Code>
NA
        </arm:Code>
        </arm:ProgrammingCode>
      </arm:AnalysisResult>
    </arm:ResultDisplay>
<arm:ResultDisplay OID="RD.Table 14.3.1.5" Name="Table 14.3.1.5">
      <Description>
          <TranslatedText xml:lang="en">Incidence Rates of Serious TEAEs by System Organ Class and Preferred Term</TranslatedText>
      </Description>
      <def:DocumentRef leafID="Table 14.3.1.5">
        <def:PDFPageRef PageRefs="302" Type="PhysicalRef"/>
      </def:DocumentRef>
      <arm:AnalysisResult
        OID="Table 14.3.1.5"
        ParameterOID="ADAE.N/A"
        ResultIdentifier="Table 14.3.1.5"
        AnalysisReason="SPECIFIED IN SAP"
        AnalysisPurpose="NA">
        <Description>
          <TranslatedText xml:lang="en">Summary of Serious TEAEs by System Organ Class and Preferred Term</TranslatedText>
        </Description>
        <arm:AnalysisDatasets>
          <arm:AnalysisDataset ItemGroupOID="ADAE" >
          <def:WhereClauseRef WhereClauseOID="WC.Table 14.3.1.5" />

        <arm:AnalysisVariable ItemOID="ADAE.AEBODSYS"/>
<arm:AnalysisVariable ItemOID="ADAE.AEDECOD"/>

          </arm:AnalysisDataset>
        </arm:AnalysisDatasets>
        <arm:Documentation>
        <Description>
          <TranslatedText xml:lang="en">Incidence Rates of Serious TEAEs by System Organ Class and Preferred Term</TranslatedText>
        </Description>
        <def:DocumentRef  leafID="SAP_Section_13.4.1">
        </def:DocumentRef>
        </arm:Documentation>

        <arm:ProgrammingCode Context="R Version 4.0.3 (2020-10-10)">
        <arm:Code>
NA
        </arm:Code>
        </arm:ProgrammingCode>
      </arm:AnalysisResult>
    </arm:ResultDisplay>
<arm:ResultDisplay OID="RD.Table 14.3.1.6" Name="Table 14.3.1.6">
      <Description>
          <TranslatedText xml:lang="en">Incidence Rates of Serious Treatement Related TEAEs by System Organ Class and Preferred Term</TranslatedText>
      </Description>
      <def:DocumentRef leafID="Table 14.3.1.6">
        <def:PDFPageRef PageRefs="302" Type="PhysicalRef"/>
      </def:DocumentRef>
      <arm:AnalysisResult
        OID="Table 14.3.1.6"
        ParameterOID="ADAE.N/A"
        ResultIdentifier="Table 14.3.1.6"
        AnalysisReason="SPECIFIED IN SAP"
        AnalysisPurpose="NA">
        <Description>
          <TranslatedText xml:lang="en">Summary of Serious Treatment Related TEAEs by System Organ Class and Preferred Term</TranslatedText>
        </Description>
        <arm:AnalysisDatasets>
          <arm:AnalysisDataset ItemGroupOID="ADAE" >
          <def:WhereClauseRef WhereClauseOID="WC.Table 14.3.1.6" />

        <arm:AnalysisVariable ItemOID="ADAE.AEBODSYS"/>
<arm:AnalysisVariable ItemOID="ADAE.AEDECOD"/>

          </arm:AnalysisDataset>
        </arm:AnalysisDatasets>
        <arm:Documentation>
        <Description>
          <TranslatedText xml:lang="en">Incidence Rates of Serious Treatement Related TEAEs by System Organ Class and Preferred Term</TranslatedText>
        </Description>
        <def:DocumentRef  leafID="SAP_Section_13.4.2">
        </def:DocumentRef>
        </arm:Documentation>

        <arm:ProgrammingCode Context="R Version 4.0.3 (2020-10-10)">
        <arm:Code>
NA
        </arm:Code>
        </arm:ProgrammingCode>
      </arm:AnalysisResult>
    </arm:ResultDisplay>
<arm:ResultDisplay OID="RD.Table 14.3.1.7" Name="Table 14.3.1.7">
      <Description>
          <TranslatedText xml:lang="en">Incidence Rates of TEAEs Two-fold Greater in Active Group</TranslatedText>
      </Description>
      <def:DocumentRef leafID="Table 14.3.1.7">
        <def:PDFPageRef PageRefs="302" Type="PhysicalRef"/>
      </def:DocumentRef>
      <arm:AnalysisResult
        OID="Table 14.3.1.7"
        ParameterOID="ADAE.N/A"
        ResultIdentifier="Table 14.3.1.7"
        AnalysisReason="SPECIFIED IN SAP"
        AnalysisPurpose="NA">
        <Description>
          <TranslatedText xml:lang="en">Summary of TEAEs with a Relative Frequency in the Active Treatment Group of At Least Twice the Relative Frequency in the Vehicle group by System Organ Class and Preferred Term</TranslatedText>
        </Description>
        <arm:AnalysisDatasets>
          <arm:AnalysisDataset ItemGroupOID="ADAE" >
          <def:WhereClauseRef WhereClauseOID="WC.Table 14.3.1.7" />

        <arm:AnalysisVariable ItemOID="ADAE.AEBODSYS"/>
<arm:AnalysisVariable ItemOID="ADAE.AEDECOD"/>

          </arm:AnalysisDataset>
        </arm:AnalysisDatasets>
        <arm:Documentation>
        <Description>
          <TranslatedText xml:lang="en">Incidence Rates of TEAEs Two-fold Greater in Active Group</TranslatedText>
        </Description>
        <def:DocumentRef  leafID="SAP_Section_13.4.1">
        </def:DocumentRef>
        </arm:Documentation>

        <arm:ProgrammingCode Context="R Version 4.0.3 (2020-10-10)">
        <arm:Code>
NA
        </arm:Code>
        </arm:ProgrammingCode>
      </arm:AnalysisResult>
    </arm:ResultDisplay>
<arm:ResultDisplay OID="RD.Table 14.3.1.8" Name="Table 14.3.1.8">
      <Description>
          <TranslatedText xml:lang="en">Incidence Rates of TEAEs Leading to Premature Withdrawal of Study Treatment</TranslatedText>
      </Description>
      <def:DocumentRef leafID="Table 14.3.1.8">
        <def:PDFPageRef PageRefs="302" Type="PhysicalRef"/>
      </def:DocumentRef>
      <arm:AnalysisResult
        OID="Table 14.3.1.8"
        ParameterOID="ADAE.N/A"
        ResultIdentifier="Table 14.3.1.8"
        AnalysisReason="SPECIFIED IN SAP"
        AnalysisPurpose="NA">
        <Description>
          <TranslatedText xml:lang="en">Summary of TEAEs Leading to Premature Withdrawal of the Study Treatment by System Organ Class and Preferred Term</TranslatedText>
        </Description>
        <arm:AnalysisDatasets>
          <arm:AnalysisDataset ItemGroupOID="ADAE" >
          <def:WhereClauseRef WhereClauseOID="WC.Table 14.3.1.8" />

        <arm:AnalysisVariable ItemOID="ADAE.AEBODSYS"/>
<arm:AnalysisVariable ItemOID="ADAE.AEDECOD"/>

          </arm:AnalysisDataset>
        </arm:AnalysisDatasets>
        <arm:Documentation>
        <Description>
          <TranslatedText xml:lang="en">Incidence Rates of TEAEs Leading to Premature Withdrawal of Study Treatment</TranslatedText>
        </Description>
        <def:DocumentRef  leafID="SAP_Section_13.4.1">
        </def:DocumentRef>
        </arm:Documentation>

        <arm:ProgrammingCode Context="R Version 4.0.3 (2020-10-10)">
        <arm:Code>
NA
        </arm:Code>
        </arm:ProgrammingCode>
      </arm:AnalysisResult>
    </arm:ResultDisplay>
<arm:ResultDisplay OID="RD.Table 14.3.1.9" Name="Table 14.3.1.9">
      <Description>
          <TranslatedText xml:lang="en">Incidence Rates of TEAEs Leading to Study Discontinuation</TranslatedText>
      </Description>
      <def:DocumentRef leafID="Table 14.3.1.9">
        <def:PDFPageRef PageRefs="302" Type="PhysicalRef"/>
      </def:DocumentRef>
      <arm:AnalysisResult
        OID="Table 14.3.1.9"
        ParameterOID="ADAE.N/A"
        ResultIdentifier="Table 14.3.1.9"
        AnalysisReason="SPECIFIED IN SAP"
        AnalysisPurpose="NA">
        <Description>
          <TranslatedText xml:lang="en">Summary of TEAEs Leading to Study Discontinuation by System Organ Class and Preferred Term</TranslatedText>
        </Description>
        <arm:AnalysisDatasets>
          <arm:AnalysisDataset ItemGroupOID="ADAE" >
          <def:WhereClauseRef WhereClauseOID="WC.Table 14.3.1.9" />

        <arm:AnalysisVariable ItemOID="ADAE.AEBODSYS"/>
<arm:AnalysisVariable ItemOID="ADAE.AEDECOD"/>

          </arm:AnalysisDataset>
        </arm:AnalysisDatasets>
        <arm:Documentation>
        <Description>
          <TranslatedText xml:lang="en">Incidence Rates of TEAEs Leading to Study Discontinuation</TranslatedText>
        </Description>
        <def:DocumentRef  leafID="SAP_Section_13.4.1">
        </def:DocumentRef>
        </arm:Documentation>

        <arm:ProgrammingCode Context="R Version 4.0.3 (2020-10-10)">
        <arm:Code>
NA
        </arm:Code>
        </arm:ProgrammingCode>
      </arm:AnalysisResult>
    </arm:ResultDisplay>
<arm:ResultDisplay OID="RD.Table 14.3.1.10" Name="Table 14.3.1.10">
      <Description>
          <TranslatedText xml:lang="en">Incidence Rates of TEAEs During Treatment Periods</TranslatedText>
      </Description>
      <def:DocumentRef leafID="Table 14.3.1.10">
        <def:PDFPageRef PageRefs="302" Type="PhysicalRef"/>
      </def:DocumentRef>
      <arm:AnalysisResult
        OID="Table 14.3.1.10"
        ParameterOID="ADAE.N/A"
        ResultIdentifier="Table 14.3.1.10"
        AnalysisReason="SPECIFIED IN SAP"
        AnalysisPurpose="NA">
        <Description>
          <TranslatedText xml:lang="en">Summary of TEAEs during Treatment Period by System Organ Class and Preferred Term</TranslatedText>
        </Description>
        <arm:AnalysisDatasets>
          <arm:AnalysisDataset ItemGroupOID="ADAE" >
          <def:WhereClauseRef WhereClauseOID="WC.Table 14.3.1.10" />

        <arm:AnalysisVariable ItemOID="ADAE.AEBODSYS"/>
<arm:AnalysisVariable ItemOID="ADAE.AEDECOD"/>

          </arm:AnalysisDataset>
        </arm:AnalysisDatasets>
        <arm:Documentation>
        <Description>
          <TranslatedText xml:lang="en">Incidence Rates of TEAEs During Treatment Periods</TranslatedText>
        </Description>
        <def:DocumentRef  leafID="SAP_Section_13.4.1">
        </def:DocumentRef>
        </arm:Documentation>

        <arm:ProgrammingCode Context="R Version 4.0.3 (2020-10-10)">
        <arm:Code>
NA
        </arm:Code>
        </arm:ProgrammingCode>
      </arm:AnalysisResult>
    </arm:ResultDisplay>
<arm:ResultDisplay OID="RD.Table 14.3.1.11" Name="Table 14.3.1.11">
      <Description>
          <TranslatedText xml:lang="en">Incidence Rates of TEAEs During Follow-up</TranslatedText>
      </Description>
      <def:DocumentRef leafID="Table 14.3.1.11">
        <def:PDFPageRef PageRefs="302" Type="PhysicalRef"/>
      </def:DocumentRef>
      <arm:AnalysisResult
        OID="Table 14.3.1.11"
        ParameterOID="ADAE.N/A"
        ResultIdentifier="Table 14.3.1.11"
        AnalysisReason="SPECIFIED IN SAP"
        AnalysisPurpose="NA">
        <Description>
          <TranslatedText xml:lang="en">Summary of TEAEs during Follow-Up Period by System Organ Class and Preferred Term</TranslatedText>
        </Description>
        <arm:AnalysisDatasets>
          <arm:AnalysisDataset ItemGroupOID="ADAE" >
          <def:WhereClauseRef WhereClauseOID="WC.Table 14.3.1.11" />

        <arm:AnalysisVariable ItemOID="ADAE.AEBODSYS"/>
<arm:AnalysisVariable ItemOID="ADAE.AEDECOD"/>

          </arm:AnalysisDataset>
        </arm:AnalysisDatasets>
        <arm:Documentation>
        <Description>
          <TranslatedText xml:lang="en">Incidence Rates of TEAEs During Follow-up</TranslatedText>
        </Description>
        <def:DocumentRef  leafID="SAP_Section_13.4.1">
        </def:DocumentRef>
        </arm:Documentation>

        <arm:ProgrammingCode Context="R Version 4.0.3 (2020-10-10)">
        <arm:Code>
NA
        </arm:Code>
        </arm:ProgrammingCode>
      </arm:AnalysisResult>
    </arm:ResultDisplay>
<arm:ResultDisplay OID="RD.Table 14.3.1.12" Name="Table 14.3.1.12">
      <Description>
          <TranslatedText xml:lang="en">Incidence Rates of TEAEs By Severity</TranslatedText>
      </Description>
      <def:DocumentRef leafID="Table 14.3.1.12">
        <def:PDFPageRef PageRefs="302" Type="PhysicalRef"/>
      </def:DocumentRef>
      <arm:AnalysisResult
        OID="Table 14.3.1.12"
        ParameterOID="ADAE.N/A"
        ResultIdentifier="Table 14.3.1.12"
        AnalysisReason="SPECIFIED IN SAP"
        AnalysisPurpose="NA">
        <Description>
          <TranslatedText xml:lang="en">Summary of TEAEs by Severity, System Organ Class, and Preferred Term</TranslatedText>
        </Description>
        <arm:AnalysisDatasets>
          <arm:AnalysisDataset ItemGroupOID="ADAE" >
          <def:WhereClauseRef WhereClauseOID="WC.Table 14.3.1.12" />

        <arm:AnalysisVariable ItemOID="ADAE.AEBODSYS"/>
<arm:AnalysisVariable ItemOID="ADAE.AEDECOD"/>

          </arm:AnalysisDataset>
        </arm:AnalysisDatasets>
        <arm:Documentation>
        <Description>
          <TranslatedText xml:lang="en">Incidence Rates of TEAEs By Severity</TranslatedText>
        </Description>
        <def:DocumentRef  leafID="SAP_Section_13.4.1">
        </def:DocumentRef>
        </arm:Documentation>

        <arm:ProgrammingCode Context="R Version 4.0.3 (2020-10-10)">
        <arm:Code>
NA
        </arm:Code>
        </arm:ProgrammingCode>
      </arm:AnalysisResult>
    </arm:ResultDisplay>
<arm:ResultDisplay OID="RD.Table 14.3.2" Name="Table 14.3.2">
      <Description>
          <TranslatedText xml:lang="en">Mean Endocrine Assessments and Changes from Baseline</TranslatedText>
      </Description>
      <def:DocumentRef leafID="Table 14.3.2">
        <def:PDFPageRef PageRefs="302" Type="PhysicalRef"/>
      </def:DocumentRef>
      <arm:AnalysisResult
        OID="Table 14.3.2"
        ParameterOID="NA.NA"
        ResultIdentifier="Table 14.3.2"
        AnalysisReason="SPECIFIED IN SAP"
        AnalysisPurpose="Exploratory safety endpoint">
        <Description>
          <TranslatedText xml:lang="en">Summary of Endocrine Endpoints (Progesterone, Total and Free Testosterone, Estradiol, Dihydrotestosterone, Luteinizing Hormone, and Follicle-Stimulating Hormone)</TranslatedText>
        </Description>
        <arm:AnalysisDatasets>
          <arm:AnalysisDataset ItemGroupOID="NA" >
          <def:WhereClauseRef WhereClauseOID="WC.Table 14.3.2" />

        <arm:AnalysisVariable ItemOID="NA.AVAL"/>
<arm:AnalysisVariable ItemOID="NA.CHG"/>

          </arm:AnalysisDataset>
        </arm:AnalysisDatasets>
        <arm:Documentation>
        <Description>
          <TranslatedText xml:lang="en">ANCOVA analysis of the treatment group effect with a baseline covariate, by visit</TranslatedText>
        </Description>
        <def:DocumentRef  leafID="SAP_Section_13.4.3.4">
        </def:DocumentRef>
        </arm:Documentation>

        <arm:ProgrammingCode Context="R Version 4.0.3 (2020-10-10)">
        <arm:Code>
NA
        </arm:Code>
        </arm:ProgrammingCode>
      </arm:AnalysisResult>
    </arm:ResultDisplay>
<arm:ResultDisplay OID="RD.Table 14.3.3" Name="Table 14.3.3">
      <Description>
          <TranslatedText xml:lang="en">Summary Assessments of Pregnancy Tests</TranslatedText>
      </Description>
      <def:DocumentRef leafID="Table 14.3.3">
        <def:PDFPageRef PageRefs="302" Type="PhysicalRef"/>
      </def:DocumentRef>
      <arm:AnalysisResult
        OID="Table 14.3.3"
        ParameterOID="NA.NA"
        ResultIdentifier="Table 14.3.3"
        AnalysisReason="SPECIFIED IN SAP"
        AnalysisPurpose="Exploratory safety endpoint">
        <Description>
          <TranslatedText xml:lang="en">Summary of Urine Pregnancy Test</TranslatedText>
        </Description>
        <arm:AnalysisDatasets>
          <arm:AnalysisDataset ItemGroupOID="NA" >
          <def:WhereClauseRef WhereClauseOID="WC.Table 14.3.3" />

        <arm:AnalysisVariable ItemOID="NA.NA"/>

          </arm:AnalysisDataset>
        </arm:AnalysisDatasets>
        <arm:Documentation>
        <Description>
          <TranslatedText xml:lang="en">NA</TranslatedText>
        </Description>
        <def:DocumentRef  leafID="SAP_Section_13.4.3.5">
        </def:DocumentRef>
        </arm:Documentation>

        <arm:ProgrammingCode Context="R Version 4.0.3 (2020-10-10)">
        <arm:Code>
NA
        </arm:Code>
        </arm:ProgrammingCode>
      </arm:AnalysisResult>
    </arm:ResultDisplay>
<arm:ResultDisplay OID="RD.Table 14.3.4" Name="Table 14.3.4">
      <Description>
          <TranslatedText xml:lang="en">Mean IOP Assessments and Changes from Baseline</TranslatedText>
      </Description>
      <def:DocumentRef leafID="Table 14.3.4">
        <def:PDFPageRef PageRefs="302" Type="PhysicalRef"/>
      </def:DocumentRef>
      <arm:AnalysisResult
        OID="Table 14.3.4"
        ParameterOID="NA.IOP
IOPOD
IOPOS"
        ResultIdentifier="Table 14.3.4"
        AnalysisReason="SPECIFIED IN SAP"
        AnalysisPurpose="Exploratory safety endpoint">
        <Description>
          <TranslatedText xml:lang="en">Summary of Intraocular Pressure (IOP)</TranslatedText>
        </Description>
        <arm:AnalysisDatasets>
          <arm:AnalysisDataset ItemGroupOID="NA" >
          <def:WhereClauseRef WhereClauseOID="WC.Table 14.3.4" />

        <arm:AnalysisVariable ItemOID="NA.AVAL"/>
<arm:AnalysisVariable ItemOID="NA.CHG"/>

          </arm:AnalysisDataset>
        </arm:AnalysisDatasets>
        <arm:Documentation>
        <Description>
          <TranslatedText xml:lang="en">ANCOVA analysis of the treatment group effect with a baseline covariate, by visit</TranslatedText>
        </Description>
        <def:DocumentRef  leafID="SAP_Section_13.4.3.1">
        </def:DocumentRef>
        </arm:Documentation>

        <arm:ProgrammingCode Context="R Version 4.0.3 (2020-10-10)">
        <arm:Code>
NA
        </arm:Code>
        </arm:ProgrammingCode>
      </arm:AnalysisResult>
    </arm:ResultDisplay>
<arm:ResultDisplay OID="RD.Table 14.3.5" Name="Table 14.3.5">
      <Description>
          <TranslatedText xml:lang="en">Mean VA Assessments and Changes from Baseline</TranslatedText>
      </Description>
      <def:DocumentRef leafID="Table 14.3.5">
        <def:PDFPageRef PageRefs="302" Type="PhysicalRef"/>
      </def:DocumentRef>
      <arm:AnalysisResult
        OID="Table 14.3.5"
        ParameterOID="NA.VISACOD
VISACOS
VISACOU"
        ResultIdentifier="Table 14.3.5"
        AnalysisReason="SPECIFIED IN SAP"
        AnalysisPurpose="Exploratory safety endpoint">
        <Description>
          <TranslatedText xml:lang="en">Summary of Visual Acuity (VA)</TranslatedText>
        </Description>
        <arm:AnalysisDatasets>
          <arm:AnalysisDataset ItemGroupOID="NA" >
          <def:WhereClauseRef WhereClauseOID="WC.Table 14.3.5" />

        <arm:AnalysisVariable ItemOID="NA.AVAL"/>
<arm:AnalysisVariable ItemOID="NA.CHG"/>

          </arm:AnalysisDataset>
        </arm:AnalysisDatasets>
        <arm:Documentation>
        <Description>
          <TranslatedText xml:lang="en">ANCOVA analysis of the treatment group effect with a baseline covariate, by visit</TranslatedText>
        </Description>
        <def:DocumentRef  leafID="SAP_Section_13.4.3.3">
        </def:DocumentRef>
        </arm:Documentation>

        <arm:ProgrammingCode Context="R Version 4.0.3 (2020-10-10)">
        <arm:Code>
NA
        </arm:Code>
        </arm:ProgrammingCode>
      </arm:AnalysisResult>
    </arm:ResultDisplay>
<arm:ResultDisplay OID="RD.Table 14.3.6" Name="Table 14.3.6">
      <Description>
          <TranslatedText xml:lang="en">Mean Tear Break-Up Time Assessments and Changes from Baseline</TranslatedText>
      </Description>
      <def:DocumentRef leafID="Table 14.3.6">
        <def:PDFPageRef PageRefs="302" Type="PhysicalRef"/>
      </def:DocumentRef>
      <arm:AnalysisResult
        OID="Table 14.3.6"
        ParameterOID="NA.TBUTWOD
TBUTWOS
TBUTWOSL"
        ResultIdentifier="Table 14.3.6"
        AnalysisReason="SPECIFIED IN SAP"
        AnalysisPurpose="Exploratory safety endpoint">
        <Description>
          <TranslatedText xml:lang="en">Summary of Tear Break-Up Time (TBUT)</TranslatedText>
        </Description>
        <arm:AnalysisDatasets>
          <arm:AnalysisDataset ItemGroupOID="NA" >
          <def:WhereClauseRef WhereClauseOID="WC.Table 14.3.6" />

        <arm:AnalysisVariable ItemOID="NA.AVAL"/>
<arm:AnalysisVariable ItemOID="NA.CHG"/>

          </arm:AnalysisDataset>
        </arm:AnalysisDatasets>
        <arm:Documentation>
        <Description>
          <TranslatedText xml:lang="en">ANCOVA analysis of the treatment group effect with a baseline covariate, by visit</TranslatedText>
        </Description>
        <def:DocumentRef  leafID="SAP_Section_13.7">
        </def:DocumentRef>
        </arm:Documentation>

        <arm:ProgrammingCode Context="R Version 4.0.3 (2020-10-10)">
        <arm:Code>
NA
        </arm:Code>
        </arm:ProgrammingCode>
      </arm:AnalysisResult>
    </arm:ResultDisplay>
<arm:ResultDisplay OID="RD.Table 14.3.7" Name="Table 14.3.7">
      <Description>
          <TranslatedText xml:lang="en">Mean Keratograph Assessments and Changes from Baseline</TranslatedText>
      </Description>
      <def:DocumentRef leafID="Table 14.3.7">
        <def:PDFPageRef PageRefs="302" Type="PhysicalRef"/>
      </def:DocumentRef>
      <arm:AnalysisResult
        OID="Table 14.3.7"
        ParameterOID="NA.KBRTOD
KBRTOS
KBRTOU
KBRNOD
KBRNOS
KBRNOU
KLRTOD
KLRTOS
KLRTOU
KLRNOD
KBRTWOD
KBRTWOS
KBRTWOU
KBRNWOD
KBRNWOS
KBRNWOU
KLRTWOD
KLRTWOS
KLRTWOU
KLRNOD
KLRNOS
KLRNOU
KABROD
KABROS
KABROU
KAASOD
KAASOS
KAASOU"
        ResultIdentifier="Table 14.3.7"
        AnalysisReason="SPECIFIED IN SAP"
        AnalysisPurpose="Exploratory safety endpoint">
        <Description>
          <TranslatedText xml:lang="en">Summary of Redness Scan – Keratograph, with and without lenses</TranslatedText>
        </Description>
        <arm:AnalysisDatasets>
          <arm:AnalysisDataset ItemGroupOID="NA" >
          <def:WhereClauseRef WhereClauseOID="WC.Table 14.3.7" />

        <arm:AnalysisVariable ItemOID="NA.AVAL"/>
<arm:AnalysisVariable ItemOID="NA.CHG"/>

          </arm:AnalysisDataset>
        </arm:AnalysisDatasets>
        <arm:Documentation>
        <Description>
          <TranslatedText xml:lang="en">ANCOVA analysis of the treatment group effect with a baseline covariate, by visit</TranslatedText>
        </Description>
        <def:DocumentRef  leafID="SAP_Section_13.3.4">
        </def:DocumentRef>
        </arm:Documentation>

        <arm:ProgrammingCode Context="R Version 4.0.3 (2020-10-10)">
        <arm:Code>
NA
        </arm:Code>
        </arm:ProgrammingCode>
      </arm:AnalysisResult>
    </arm:ResultDisplay>
<arm:ResultDisplay OID="RD.Table 14.3.8" Name="Table 14.3.8">
      <Description>
          <TranslatedText xml:lang="en">Mean UF Assessments and Changes from Baseline</TranslatedText>
      </Description>
      <def:DocumentRef leafID="Table 14.3.8">
        <def:PDFPageRef PageRefs="302" Type="PhysicalRef"/>
      </def:DocumentRef>
      <arm:AnalysisResult
        OID="Table 14.3.8"
        ParameterOID="NA.UNDFUNDA
UNDFUND
UFVHOD
UFVHAOD
UFONOD
UFONAOD
UFCDROD
UFMACOD
UFMACAOD
UFVHOS
UFVHAOS
UFONOS
UFONAOS
UFCDROS
UFMACOS
UFMACAOS"
        ResultIdentifier="Table 14.3.8"
        AnalysisReason="SPECIFIED IN SAP"
        AnalysisPurpose="Exploratory safety endpoint">
        <Description>
          <TranslatedText xml:lang="en">Summary of Undilated Fundoscopy</TranslatedText>
        </Description>
        <arm:AnalysisDatasets>
          <arm:AnalysisDataset ItemGroupOID="NA" >
          <def:WhereClauseRef WhereClauseOID="WC.Table 14.3.8" />

        <arm:AnalysisVariable ItemOID="NA.AVAL"/>
<arm:AnalysisVariable ItemOID="NA.CHG"/>

          </arm:AnalysisDataset>
        </arm:AnalysisDatasets>
        <arm:Documentation>
        <Description>
          <TranslatedText xml:lang="en">ANCOVA analysis of the treatment group effect with a baseline covariate, by visit</TranslatedText>
        </Description>
        <def:DocumentRef  leafID="SAP_Section_13.4.3.2">
        </def:DocumentRef>
        </arm:Documentation>

        <arm:ProgrammingCode Context="R Version 4.0.3 (2020-10-10)">
        <arm:Code>
NA
        </arm:Code>
        </arm:ProgrammingCode>
      </arm:AnalysisResult>
    </arm:ResultDisplay>
<arm:ResultDisplay OID="RD.Table 14.3.9" Name="Table 14.3.9">
      <Description>
          <TranslatedText xml:lang="en">Incidence Rates of Clinically Signficant Corneal and Conjunctival Staining</TranslatedText>
      </Description>
      <def:DocumentRef leafID="Table 14.3.9">
        <def:PDFPageRef PageRefs="302" Type="PhysicalRef"/>
      </def:DocumentRef>
      <arm:AnalysisResult
        OID="Table 14.3.9"
        ParameterOID="NA.CLSZ2COD
CLSZ2COS
CLSZ3COD
CLSZ3COS
CLSZ4COD
CLSZ4COS
CLSZ5COD
CLSZ5COS
CLSOTHOD
CLSOTHOS
CLSCSOS
CLSZ1COD
CLSZ1COS
CLSZ6COD
CLSZ6COS
CLSOTOD
CLSOTOS
CFSSUCOD
CFSSUCOS
CFSCTCOD
CFSCTCOS
CFSINCOD
CFSINCOS
CFSOTHOD
CFSCSOD
CFSOTHOS
CFSCSOS"
        ResultIdentifier="Table 14.3.9"
        AnalysisReason="SPECIFIED IN SAP"
        AnalysisPurpose="Exploratory safety endpoint">
        <Description>
          <TranslatedText xml:lang="en">Summary of Corneal and Conjunctival Staining (Clinical Significance)</TranslatedText>
        </Description>
        <arm:AnalysisDatasets>
          <arm:AnalysisDataset ItemGroupOID="NA" >
          <def:WhereClauseRef WhereClauseOID="WC.Table 14.3.9" />

        <arm:AnalysisVariable ItemOID="NA.NA"/>

          </arm:AnalysisDataset>
        </arm:AnalysisDatasets>
        <arm:Documentation>
        <Description>
          <TranslatedText xml:lang="en">Rates and chi-squared tests of categorical clinically significant variables</TranslatedText>
        </Description>
        <def:DocumentRef  leafID="SAP_Section_13.3.4">
        </def:DocumentRef>
        </arm:Documentation>

        <arm:ProgrammingCode Context="R Version 4.0.3 (2020-10-10)">
        <arm:Code>
NA
        </arm:Code>
        </arm:ProgrammingCode>
      </arm:AnalysisResult>
    </arm:ResultDisplay>
</arm:AnalysisResultDisplays>
</MetaDataVersion>
</Study>
</ODM>
