<?xml version="1.0" encoding="ISO-8859-1" ?>
  <?xml-stylesheet type="text/xsl" href="define2-1.xsl"?>
    <!-- ************************************************************* -->
    <!-- File: define.xml                                              -->
    <!-- Date: 05September2022                                                   -->
    <!-- Description: Define.xml file for oGvHD-2-SC                       -->
    <!-- Created by the defineR package                                -->
    <!-- ************************************************************* -->
    <ODM
  xmlns="http://www.cdisc.org/ns/odm/v1.3"
  xmlns:xlink="http://www.w3.org/1999/xlink"
  xmlns:def="http://www.cdisc.org/ns/def/v2.0"
  ODMVersion="1.3.2"
  FileOID="oGvHD-2-SC"
  FileType="Snapshot"
  CreationDateTime="2022-09-05T12:31:44">
    <Study OID="oGvHD-2-SC">
    <GlobalVariables>
    <StudyName>oGvHD-2-SC</StudyName>
    <StudyDescription>A PHASE II/III TRIAL OF SAFETY AND EFFICACY OF PRO-OCULAR&#8482; 1% IN DAILY SCLERAL LENS WEARING PATIENTS WITH OCULAR GRAFT-VERSUS-HOST DISEASE</StudyDescription>
    <ProtocolName>oGvHD-2-SC</ProtocolName>
    </GlobalVariables>
    <MetaDataVersion OID="CDISC.SDTM-IG.3.2"
  Name="oGvHD-2-SC, SDTM Data Definitions"
  Description="oGvHD-2-SC, SDTM Data Definitions"
  def:DefineVersion="2.0.0"
  def:StandardName="SDTM-IG"
  def:StandardVersion="3.4">

  <!-- ******************************************* -->
  <!-- EXTERNAL DOCUMENT REFERENCE             *** -->
  <!-- ******************************************* -->
<def:AnnotatedCRF>
  <def:DocumentRef leafID="LF.acrf"/>
</def:AnnotatedCRF>

<def:SupplementalDoc>
  <def:DocumentRef leafID="LF.CRTRG"/>
</def:SupplementalDoc>


  <!-- ******************************************* -->
  <!-- VALUE LEVEL LIST DEFINITION INFORMATION  ** -->
  <!-- ******************************************* -->

<def:ValueListDef OID="VL.IE.IEORRES">
<ItemRef ItemOID="IT.IE.IEORRES.IC01"
  OrderNumber="1"
  Mandatory="NA"
  >
  <def:WhereClauseRef WhereClauseOID="WC.IE.IEORRES.IC01"/>

</ItemRef>
<ItemRef ItemOID="IT.IE.IEORRES.IC02"
  OrderNumber="2"
  Mandatory="NA"
  >
  <def:WhereClauseRef WhereClauseOID="WC.IE.IEORRES.IC02"/>

</ItemRef>
<ItemRef ItemOID="IT.IE.IEORRES.IC03"
  OrderNumber="3"
  Mandatory="NA"
  >
  <def:WhereClauseRef WhereClauseOID="WC.IE.IEORRES.IC03"/>

</ItemRef>
<ItemRef ItemOID="IT.IE.IEORRES.IC04"
  OrderNumber="4"
  Mandatory="NA"
  >
  <def:WhereClauseRef WhereClauseOID="WC.IE.IEORRES.IC04"/>

</ItemRef>
<ItemRef ItemOID="IT.IE.IEORRES.IC05"
  OrderNumber="5"
  Mandatory="NA"
  >
  <def:WhereClauseRef WhereClauseOID="WC.IE.IEORRES.IC05"/>

</ItemRef>
<ItemRef ItemOID="IT.IE.IEORRES.IC06"
  OrderNumber="6"
  Mandatory="NA"
  >
  <def:WhereClauseRef WhereClauseOID="WC.IE.IEORRES.IC06"/>

</ItemRef>
<ItemRef ItemOID="IT.IE.IEORRES.IC07"
  OrderNumber="7"
  Mandatory="NA"
  >
  <def:WhereClauseRef WhereClauseOID="WC.IE.IEORRES.IC07"/>

</ItemRef>
<ItemRef ItemOID="IT.IE.IEORRES.IC08"
  OrderNumber="8"
  Mandatory="NA"
  >
  <def:WhereClauseRef WhereClauseOID="WC.IE.IEORRES.IC08"/>

</ItemRef>
<ItemRef ItemOID="IT.IE.IEORRES.IC09"
  OrderNumber="9"
  Mandatory="NA"
  >
  <def:WhereClauseRef WhereClauseOID="WC.IE.IEORRES.IC09"/>

</ItemRef>
<ItemRef ItemOID="IT.IE.IEORRES.IC10"
  OrderNumber="10"
  Mandatory="NA"
  >
  <def:WhereClauseRef WhereClauseOID="WC.IE.IEORRES.IC10"/>

</ItemRef>
<ItemRef ItemOID="IT.IE.IEORRES.EX01"
  OrderNumber="11"
  Mandatory="NA"
  >
  <def:WhereClauseRef WhereClauseOID="WC.IE.IEORRES.EX01"/>

</ItemRef>
<ItemRef ItemOID="IT.IE.IEORRES.EX02"
  OrderNumber="12"
  Mandatory="NA"
  >
  <def:WhereClauseRef WhereClauseOID="WC.IE.IEORRES.EX02"/>

</ItemRef>
<ItemRef ItemOID="IT.IE.IEORRES.EX03"
  OrderNumber="13"
  Mandatory="NA"
  >
  <def:WhereClauseRef WhereClauseOID="WC.IE.IEORRES.EX03"/>

</ItemRef>
<ItemRef ItemOID="IT.IE.IEORRES.EX04"
  OrderNumber="14"
  Mandatory="NA"
  >
  <def:WhereClauseRef WhereClauseOID="WC.IE.IEORRES.EX04"/>

</ItemRef>
<ItemRef ItemOID="IT.IE.IEORRES.EX05"
  OrderNumber="15"
  Mandatory="NA"
  >
  <def:WhereClauseRef WhereClauseOID="WC.IE.IEORRES.EX05"/>

</ItemRef>
<ItemRef ItemOID="IT.IE.IEORRES.EX06"
  OrderNumber="16"
  Mandatory="NA"
  >
  <def:WhereClauseRef WhereClauseOID="WC.IE.IEORRES.EX06"/>

</ItemRef>
<ItemRef ItemOID="IT.IE.IEORRES.EX07"
  OrderNumber="17"
  Mandatory="NA"
  >
  <def:WhereClauseRef WhereClauseOID="WC.IE.IEORRES.EX07"/>

</ItemRef>
<ItemRef ItemOID="IT.IE.IEORRES.EX08"
  OrderNumber="18"
  Mandatory="NA"
  >
  <def:WhereClauseRef WhereClauseOID="WC.IE.IEORRES.EX08"/>

</ItemRef>
<ItemRef ItemOID="IT.IE.IEORRES.EX09"
  OrderNumber="19"
  Mandatory="NA"
  >
  <def:WhereClauseRef WhereClauseOID="WC.IE.IEORRES.EX09"/>

</ItemRef>
<ItemRef ItemOID="IT.IE.IEORRES.EX10"
  OrderNumber="20"
  Mandatory="NA"
  >
  <def:WhereClauseRef WhereClauseOID="WC.IE.IEORRES.EX10"/>

</ItemRef>
<ItemRef ItemOID="IT.IE.IEORRES.EX11"
  OrderNumber="21"
  Mandatory="NA"
  >
  <def:WhereClauseRef WhereClauseOID="WC.IE.IEORRES.EX11"/>

</ItemRef>
<ItemRef ItemOID="IT.IE.IEORRES.EX12"
  OrderNumber="22"
  Mandatory="NA"
  >
  <def:WhereClauseRef WhereClauseOID="WC.IE.IEORRES.EX12"/>

</ItemRef>
<ItemRef ItemOID="IT.IE.IEORRES.EX13"
  OrderNumber="23"
  Mandatory="NA"
  >
  <def:WhereClauseRef WhereClauseOID="WC.IE.IEORRES.EX13"/>

</ItemRef>
<ItemRef ItemOID="IT.IE.IEORRES.EX14"
  OrderNumber="24"
  Mandatory="NA"
  >
  <def:WhereClauseRef WhereClauseOID="WC.IE.IEORRES.EX14"/>

</ItemRef>
<ItemRef ItemOID="IT.IE.IEORRES.IEDIA"
  OrderNumber="25"
  Mandatory="NA"
  >
  <def:WhereClauseRef WhereClauseOID="WC.IE.IEORRES.IEDIA"/>

</ItemRef>
<ItemRef ItemOID="IT.IE.IEORRES.IEOC"
  OrderNumber="26"
  Mandatory="NA"
  >
  <def:WhereClauseRef WhereClauseOID="WC.IE.IEORRES.IEOC"/>

</ItemRef>
<ItemRef ItemOID="IT.IE.IEORRES.IEOC1"
  OrderNumber="27"
  Mandatory="NA"
  >
  <def:WhereClauseRef WhereClauseOID="WC.IE.IEORRES.IEOC1"/>

</ItemRef>
<ItemRef ItemOID="IT.IE.IEORRES.IEOC2"
  OrderNumber="28"
  Mandatory="NA"
  >
  <def:WhereClauseRef WhereClauseOID="WC.IE.IEORRES.IEOC2"/>

</ItemRef>
<ItemRef ItemOID="IT.IE.IEORRES.IEOP"
  OrderNumber="29"
  Mandatory="NA"
  >
  <def:WhereClauseRef WhereClauseOID="WC.IE.IEORRES.IEOP"/>

</ItemRef>
<ItemRef ItemOID="IT.IE.IEORRES.ELIGIBLE"
  OrderNumber="30"
  Mandatory="NA"
  >
  <def:WhereClauseRef WhereClauseOID="WC.IE.IEORRES.ELIGIBLE"/>

</ItemRef>
 </def:ValueListDef>

<def:ValueListDef OID="VL.LB.LBORRES">
<ItemRef ItemOID="IT.LB.LBORRES.HCG"
  OrderNumber="1"
  Mandatory="No"
  >
  <def:WhereClauseRef WhereClauseOID="WC.LB.LBORRES.HCG"/>

</ItemRef>
<ItemRef ItemOID="IT.LB.LBORRES.PROGEST"
  OrderNumber="1"
  Mandatory="No"
  >
  <def:WhereClauseRef WhereClauseOID="WC.LB.LBORRES.PROGEST"/>

</ItemRef>
<ItemRef ItemOID="IT.LB.LBORRES.TESTOS"
  OrderNumber="2"
  Mandatory="No"
  >
  <def:WhereClauseRef WhereClauseOID="WC.LB.LBORRES.TESTOS"/>

</ItemRef>
<ItemRef ItemOID="IT.LB.LBORRES.ESTRDIOL"
  OrderNumber="3"
  Mandatory="No"
  >
  <def:WhereClauseRef WhereClauseOID="WC.LB.LBORRES.ESTRDIOL"/>

</ItemRef>
<ItemRef ItemOID="IT.LB.LBORRES.DHT"
  OrderNumber="4"
  Mandatory="No"
  >
  <def:WhereClauseRef WhereClauseOID="WC.LB.LBORRES.DHT"/>

</ItemRef>
<ItemRef ItemOID="IT.LB.LBORRES.LH"
  OrderNumber="5"
  Mandatory="No"
  >
  <def:WhereClauseRef WhereClauseOID="WC.LB.LBORRES.LH"/>

</ItemRef>
<ItemRef ItemOID="IT.LB.LBORRES.FSH"
  OrderNumber="6"
  Mandatory="No"
  >
  <def:WhereClauseRef WhereClauseOID="WC.LB.LBORRES.FSH"/>

</ItemRef>
 </def:ValueListDef>

<def:ValueListDef OID="VL.OE.OEORRES">
<ItemRef ItemOID="IT.OE.OEORRES.VACA1NOD.VACA1"
  OrderNumber="1"
  Mandatory="NA"
  >
  <def:WhereClauseRef WhereClauseOID="WC.WC.OE.OETESTCD.VACA1NOD.OEGRPID.VACA1"/>

</ItemRef>
<ItemRef ItemOID="IT.OE.OEORRES.VACA1NOS.VACA1"
  OrderNumber="2"
  Mandatory="NA"
  >
  <def:WhereClauseRef WhereClauseOID="WC.WC.OE.OETESTCD.VACA1NOS.OEGRPID.VACA1"/>

</ItemRef>
<ItemRef ItemOID="IT.OE.OEORRES.VACA1NOU.VACA1"
  OrderNumber="3"
  Mandatory="NA"
  >
  <def:WhereClauseRef WhereClauseOID="WC.WC.OE.OETESTCD.VACA1NOU.OEGRPID.VACA1"/>

</ItemRef>
<ItemRef ItemOID="IT.OE.OEORRES.VACA1DOD.VACA1"
  OrderNumber="4"
  Mandatory="NA"
  >
  <def:WhereClauseRef WhereClauseOID="WC.WC.OE.OETESTCD.VACA1DOD.OEGRPID.VACA1"/>

</ItemRef>
<ItemRef ItemOID="IT.OE.OEORRES.VACA1DOS.VACA1"
  OrderNumber="5"
  Mandatory="NA"
  >
  <def:WhereClauseRef WhereClauseOID="WC.WC.OE.OETESTCD.VACA1DOS.OEGRPID.VACA1"/>

</ItemRef>
<ItemRef ItemOID="IT.OE.OEORRES.VACA1DOU.VACA1"
  OrderNumber="6"
  Mandatory="NA"
  >
  <def:WhereClauseRef WhereClauseOID="WC.WC.OE.OETESTCD.VACA1DOU.OEGRPID.VACA1"/>

</ItemRef>
<ItemRef ItemOID="IT.OE.OEORRES.VACA1MOD.VACA1"
  OrderNumber="7"
  Mandatory="NA"
  >
  <def:WhereClauseRef WhereClauseOID="WC.WC.OE.OETESTCD.VACA1MOD.OEGRPID.VACA1"/>

</ItemRef>
<ItemRef ItemOID="IT.OE.OEORRES.VACA1MOS.VACA1"
  OrderNumber="8"
  Mandatory="NA"
  >
  <def:WhereClauseRef WhereClauseOID="WC.WC.OE.OETESTCD.VACA1MOS.OEGRPID.VACA1"/>

</ItemRef>
<ItemRef ItemOID="IT.OE.OEORRES.VACA1MOU.VACA1"
  OrderNumber="9"
  Mandatory="NA"
  >
  <def:WhereClauseRef WhereClauseOID="WC.WC.OE.OETESTCD.VACA1MOU.OEGRPID.VACA1"/>

</ItemRef>
<ItemRef ItemOID="IT.OE.OEORRES.KRSBRTOD.KRSWSL"
  OrderNumber="10"
  Mandatory="NA"
  >
  <def:WhereClauseRef WhereClauseOID="WC.WC.OE.OETESTCD.KRSBRTOD.OEGRPID.KRSWSL"/>

</ItemRef>
<ItemRef ItemOID="IT.OE.OEORRES.KRSBRTOS.KRSWSL"
  OrderNumber="11"
  Mandatory="NA"
  >
  <def:WhereClauseRef WhereClauseOID="WC.WC.OE.OETESTCD.KRSBRTOS.OEGRPID.KRSWSL"/>

</ItemRef>
<ItemRef ItemOID="IT.OE.OEORRES.KRSBRTOU.KRSWSL"
  OrderNumber="12"
  Mandatory="NA"
  >
  <def:WhereClauseRef WhereClauseOID="WC.WC.OE.OETESTCD.KRSBRTOU.OEGRPID.KRSWSL"/>

</ItemRef>
<ItemRef ItemOID="IT.OE.OEORRES.KRSBRNOD.KRSWSL"
  OrderNumber="13"
  Mandatory="NA"
  >
  <def:WhereClauseRef WhereClauseOID="WC.WC.OE.OETESTCD.KRSBRNOD.OEGRPID.KRSWSL"/>

</ItemRef>
<ItemRef ItemOID="IT.OE.OEORRES.KRSBRNOS.KRSWSL"
  OrderNumber="14"
  Mandatory="NA"
  >
  <def:WhereClauseRef WhereClauseOID="WC.WC.OE.OETESTCD.KRSBRNOS.OEGRPID.KRSWSL"/>

</ItemRef>
<ItemRef ItemOID="IT.OE.OEORRES.KRSBRNOU.KRSWSL"
  OrderNumber="15"
  Mandatory="NA"
  >
  <def:WhereClauseRef WhereClauseOID="WC.WC.OE.OETESTCD.KRSBRNOU.OEGRPID.KRSWSL"/>

</ItemRef>
<ItemRef ItemOID="IT.OE.OEORRES.KRSLRTOD.KRSWSL"
  OrderNumber="16"
  Mandatory="NA"
  >
  <def:WhereClauseRef WhereClauseOID="WC.WC.OE.OETESTCD.KRSLRTOD.OEGRPID.KRSWSL"/>

</ItemRef>
<ItemRef ItemOID="IT.OE.OEORRES.KRSLRTOS.KRSWSL"
  OrderNumber="17"
  Mandatory="NA"
  >
  <def:WhereClauseRef WhereClauseOID="WC.WC.OE.OETESTCD.KRSLRTOS.OEGRPID.KRSWSL"/>

</ItemRef>
<ItemRef ItemOID="IT.OE.OEORRES.KRSLRTOU.KRSWSL"
  OrderNumber="18"
  Mandatory="NA"
  >
  <def:WhereClauseRef WhereClauseOID="WC.WC.OE.OETESTCD.KRSLRTOU.OEGRPID.KRSWSL"/>

</ItemRef>
<ItemRef ItemOID="IT.OE.OEORRES.KRSLRNOD.KRSWSL"
  OrderNumber="19"
  Mandatory="NA"
  >
  <def:WhereClauseRef WhereClauseOID="WC.WC.OE.OETESTCD.KRSLRNOD.OEGRPID.KRSWSL"/>

</ItemRef>
<ItemRef ItemOID="IT.OE.OEORRES.KRSLRNOS.KRSWSL"
  OrderNumber="20"
  Mandatory="NA"
  >
  <def:WhereClauseRef WhereClauseOID="WC.WC.OE.OETESTCD.KRSLRNOS.OEGRPID.KRSWSL"/>

</ItemRef>
<ItemRef ItemOID="IT.OE.OEORRES.KRSLRNOU.KRSWSL"
  OrderNumber="21"
  Mandatory="NA"
  >
  <def:WhereClauseRef WhereClauseOID="WC.WC.OE.OETESTCD.KRSLRNOU.OEGRPID.KRSWSL"/>

</ItemRef>
<ItemRef ItemOID="IT.OE.OEORRES.KRSABROD.KRSWSL"
  OrderNumber="22"
  Mandatory="NA"
  >
  <def:WhereClauseRef WhereClauseOID="WC.WC.OE.OETESTCD.KRSABROD.OEGRPID.KRSWSL"/>

</ItemRef>
<ItemRef ItemOID="IT.OE.OEORRES.KRSABROS.KRSWSL"
  OrderNumber="23"
  Mandatory="NA"
  >
  <def:WhereClauseRef WhereClauseOID="WC.WC.OE.OETESTCD.KRSABROS.OEGRPID.KRSWSL"/>

</ItemRef>
<ItemRef ItemOID="IT.OE.OEORRES.KRSABROU.KRSWSL"
  OrderNumber="24"
  Mandatory="NA"
  >
  <def:WhereClauseRef WhereClauseOID="WC.WC.OE.OETESTCD.KRSABROU.OEGRPID.KRSWSL"/>

</ItemRef>
<ItemRef ItemOID="IT.OE.OEORRES.KRSAASOD.KRSWSL"
  OrderNumber="25"
  Mandatory="NA"
  >
  <def:WhereClauseRef WhereClauseOID="WC.WC.OE.OETESTCD.KRSAASOD.OEGRPID.KRSWSL"/>

</ItemRef>
<ItemRef ItemOID="IT.OE.OEORRES.KRSAASOS.KRSWSL"
  OrderNumber="26"
  Mandatory="NA"
  >
  <def:WhereClauseRef WhereClauseOID="WC.WC.OE.OETESTCD.KRSAASOS.OEGRPID.KRSWSL"/>

</ItemRef>
<ItemRef ItemOID="IT.OE.OEORRES.KRSAASOU.KRSWSL"
  OrderNumber="27"
  Mandatory="NA"
  >
  <def:WhereClauseRef WhereClauseOID="WC.WC.OE.OETESTCD.KRSAASOU.OEGRPID.KRSWSL"/>

</ItemRef>
<ItemRef ItemOID="IT.OE.OEORRES.EGSBLEOD.EGSWSL"
  OrderNumber="28"
  Mandatory="NA"
  >
  <def:WhereClauseRef WhereClauseOID="WC.WC.OE.OETESTCD.EGSBLEOD.OEGRPID.EGSWSL"/>

</ItemRef>
<ItemRef ItemOID="IT.OE.OEORRES.EGSBLEOS.EGSWSL"
  OrderNumber="29"
  Mandatory="NA"
  >
  <def:WhereClauseRef WhereClauseOID="WC.WC.OE.OETESTCD.EGSBLEOS.OEGRPID.EGSWSL"/>

</ItemRef>
<ItemRef ItemOID="IT.OE.OEORRES.EGSBLEOU.EGSWSL"
  OrderNumber="30"
  Mandatory="NA"
  >
  <def:WhereClauseRef WhereClauseOID="WC.WC.OE.OETESTCD.EGSBLEOU.OEGRPID.EGSWSL"/>

</ItemRef>
<ItemRef ItemOID="IT.OE.OEORRES.EGSCRNOD.EGSWSL"
  OrderNumber="31"
  Mandatory="NA"
  >
  <def:WhereClauseRef WhereClauseOID="WC.WC.OE.OETESTCD.EGSCRNOD.OEGRPID.EGSWSL"/>

</ItemRef>
<ItemRef ItemOID="IT.OE.OEORRES.EGSCRNOS.EGSWSL"
  OrderNumber="32"
  Mandatory="NA"
  >
  <def:WhereClauseRef WhereClauseOID="WC.WC.OE.OETESTCD.EGSCRNOS.OEGRPID.EGSWSL"/>

</ItemRef>
<ItemRef ItemOID="IT.OE.OEORRES.EGSCRNOU.EGSWSL"
  OrderNumber="33"
  Mandatory="NA"
  >
  <def:WhereClauseRef WhereClauseOID="WC.WC.OE.OETESTCD.EGSCRNOU.OEGRPID.EGSWSL"/>

</ItemRef>
<ItemRef ItemOID="IT.OE.OEORRES.EGSCRUOD.EGSWSL"
  OrderNumber="34"
  Mandatory="NA"
  >
  <def:WhereClauseRef WhereClauseOID="WC.WC.OE.OETESTCD.EGSCRUOD.OEGRPID.EGSWSL"/>

</ItemRef>
<ItemRef ItemOID="IT.OE.OEORRES.EGSCRUOS.EGSWSL"
  OrderNumber="35"
  Mandatory="NA"
  >
  <def:WhereClauseRef WhereClauseOID="WC.WC.OE.OETESTCD.EGSCRUOS.OEGRPID.EGSWSL"/>

</ItemRef>
<ItemRef ItemOID="IT.OE.OEORRES.EGSCRUOU.EGSWSL"
  OrderNumber="36"
  Mandatory="NA"
  >
  <def:WhereClauseRef WhereClauseOID="WC.WC.OE.OETESTCD.EGSCRUOU.OEGRPID.EGSWSL"/>

</ItemRef>
<ItemRef ItemOID="IT.OE.OEORRES.EGSCRTOD.EGSWSL"
  OrderNumber="37"
  Mandatory="NA"
  >
  <def:WhereClauseRef WhereClauseOID="WC.WC.OE.OETESTCD.EGSCRTOD.OEGRPID.EGSWSL"/>

</ItemRef>
<ItemRef ItemOID="IT.OE.OEORRES.EGSCRTOS.EGSWSL"
  OrderNumber="38"
  Mandatory="NA"
  >
  <def:WhereClauseRef WhereClauseOID="WC.WC.OE.OETESTCD.EGSCRTOS.OEGRPID.EGSWSL"/>

</ItemRef>
<ItemRef ItemOID="IT.OE.OEORRES.EGSCRTOU.EGSWSL"
  OrderNumber="39"
  Mandatory="NA"
  >
  <def:WhereClauseRef WhereClauseOID="WC.WC.OE.OETESTCD.EGSCRTOU.OEGRPID.EGSWSL"/>

</ItemRef>
<ItemRef ItemOID="IT.OE.OEORRES.KRSBRTOD.KRSWOSL"
  OrderNumber="40"
  Mandatory="NA"
  >
  <def:WhereClauseRef WhereClauseOID="WC.WC.OE.OETESTCD.KSOBRTOD.OEGRPID.KRSWOSL"/>

</ItemRef>
<ItemRef ItemOID="IT.OE.OEORRES.KRSBRTOS.KRSWOSL"
  OrderNumber="41"
  Mandatory="NA"
  >
  <def:WhereClauseRef WhereClauseOID="WC.WC.OE.OETESTCD.KSOBRTOS.OEGRPID.KRSWOSL"/>

</ItemRef>
<ItemRef ItemOID="IT.OE.OEORRES.KRSBRTOU.KRSWOSL"
  OrderNumber="42"
  Mandatory="NA"
  >
  <def:WhereClauseRef WhereClauseOID="WC.WC.OE.OETESTCD.KSOBRTOU.OEGRPID.KRSWOSL"/>

</ItemRef>
<ItemRef ItemOID="IT.OE.OEORRES.KRSBRNOD.KRSWOSL"
  OrderNumber="43"
  Mandatory="NA"
  >
  <def:WhereClauseRef WhereClauseOID="WC.WC.OE.OETESTCD.KSOBRNOD.OEGRPID.KRSWOSL"/>

</ItemRef>
<ItemRef ItemOID="IT.OE.OEORRES.KRSBRNOS.KRSWOSL"
  OrderNumber="44"
  Mandatory="NA"
  >
  <def:WhereClauseRef WhereClauseOID="WC.WC.OE.OETESTCD.KSOBRNOS.OEGRPID.KRSWOSL"/>

</ItemRef>
<ItemRef ItemOID="IT.OE.OEORRES.KRSBRNOU.KRSWOSL"
  OrderNumber="45"
  Mandatory="NA"
  >
  <def:WhereClauseRef WhereClauseOID="WC.WC.OE.OETESTCD.KSOBRNOU.OEGRPID.KRSWOSL"/>

</ItemRef>
<ItemRef ItemOID="IT.OE.OEORRES.KRSLRTOD.KRSWOSL"
  OrderNumber="46"
  Mandatory="NA"
  >
  <def:WhereClauseRef WhereClauseOID="WC.WC.OE.OETESTCD.KSOLRTOD.OEGRPID.KRSWOSL"/>

</ItemRef>
<ItemRef ItemOID="IT.OE.OEORRES.KRSLRTOS.KRSWOSL"
  OrderNumber="47"
  Mandatory="NA"
  >
  <def:WhereClauseRef WhereClauseOID="WC.WC.OE.OETESTCD.KSOLRTOS.OEGRPID.KRSWOSL"/>

</ItemRef>
<ItemRef ItemOID="IT.OE.OEORRES.KRSLRTOU.KRSWOSL"
  OrderNumber="48"
  Mandatory="NA"
  >
  <def:WhereClauseRef WhereClauseOID="WC.WC.OE.OETESTCD.KSOLRTOU.OEGRPID.KRSWOSL"/>

</ItemRef>
<ItemRef ItemOID="IT.OE.OEORRES.KRSLRNOD.KRSWOSL"
  OrderNumber="49"
  Mandatory="NA"
  >
  <def:WhereClauseRef WhereClauseOID="WC.WC.OE.OETESTCD.KSOLRNOD.OEGRPID.KRSWOSL"/>

</ItemRef>
<ItemRef ItemOID="IT.OE.OEORRES.KRSLRNOS.KRSWOSL"
  OrderNumber="50"
  Mandatory="NA"
  >
  <def:WhereClauseRef WhereClauseOID="WC.WC.OE.OETESTCD.KSOLRNOS.OEGRPID.KRSWOSL"/>

</ItemRef>
<ItemRef ItemOID="IT.OE.OEORRES.KRSLRNOU.KRSWOSL"
  OrderNumber="51"
  Mandatory="NA"
  >
  <def:WhereClauseRef WhereClauseOID="WC.WC.OE.OETESTCD.KSOLRNOU.OEGRPID.KRSWOSL"/>

</ItemRef>
<ItemRef ItemOID="IT.OE.OEORRES.KRSABROD.KRSWOSL"
  OrderNumber="52"
  Mandatory="NA"
  >
  <def:WhereClauseRef WhereClauseOID="WC.WC.OE.OETESTCD.KSOABROD.OEGRPID.KRSWOSL"/>

</ItemRef>
<ItemRef ItemOID="IT.OE.OEORRES.KRSABROS.KRSWOSL"
  OrderNumber="53"
  Mandatory="NA"
  >
  <def:WhereClauseRef WhereClauseOID="WC.WC.OE.OETESTCD.KSOABROS.OEGRPID.KRSWOSL"/>

</ItemRef>
<ItemRef ItemOID="IT.OE.OEORRES.KRSABROU.KRSWOSL"
  OrderNumber="54"
  Mandatory="NA"
  >
  <def:WhereClauseRef WhereClauseOID="WC.WC.OE.OETESTCD.KSOABROU.OEGRPID.KRSWOSL"/>

</ItemRef>
<ItemRef ItemOID="IT.OE.OEORRES.KRSAASOD.KRSWOSL"
  OrderNumber="55"
  Mandatory="NA"
  >
  <def:WhereClauseRef WhereClauseOID="WC.WC.OE.OETESTCD.KSOAASOD.OEGRPID.KRSWOSL"/>

</ItemRef>
<ItemRef ItemOID="IT.OE.OEORRES.KRSAASOS.KRSWOSL"
  OrderNumber="56"
  Mandatory="NA"
  >
  <def:WhereClauseRef WhereClauseOID="WC.WC.OE.OETESTCD.KSOAASOS.OEGRPID.KRSWOSL"/>

</ItemRef>
<ItemRef ItemOID="IT.OE.OEORRES.KRSAASOU.KRSWOSL"
  OrderNumber="57"
  Mandatory="NA"
  >
  <def:WhereClauseRef WhereClauseOID="WC.WC.OE.OETESTCD.KSOAASOU.OEGRPID.KRSWOSL"/>

</ItemRef>
<ItemRef ItemOID="IT.OE.OEORRES.EGSBLEOD.EGSWOSL"
  OrderNumber="58"
  Mandatory="NA"
  >
  <def:WhereClauseRef WhereClauseOID="WC.WC.OE.OETESTCD.EGSBLEOD.OEGRPID.EGSWOSL"/>

</ItemRef>
<ItemRef ItemOID="IT.OE.OEORRES.EGSBLEOS.EGSWOSL"
  OrderNumber="59"
  Mandatory="NA"
  >
  <def:WhereClauseRef WhereClauseOID="WC.WC.OE.OETESTCD.EGSBLEOS.OEGRPID.EGSWOSL"/>

</ItemRef>
<ItemRef ItemOID="IT.OE.OEORRES.EGSBLEOU.EGSWOSL"
  OrderNumber="60"
  Mandatory="NA"
  >
  <def:WhereClauseRef WhereClauseOID="WC.WC.OE.OETESTCD.EGSBLEOU.OEGRPID.EGSWOSL"/>

</ItemRef>
<ItemRef ItemOID="IT.OE.OEORRES.EGSCRNOD.EGSWOSL"
  OrderNumber="61"
  Mandatory="NA"
  >
  <def:WhereClauseRef WhereClauseOID="WC.WC.OE.OETESTCD.EGSCRNOD.OEGRPID.EGSWOSL"/>

</ItemRef>
<ItemRef ItemOID="IT.OE.OEORRES.EGSCRNOS.EGSWOSL"
  OrderNumber="62"
  Mandatory="NA"
  >
  <def:WhereClauseRef WhereClauseOID="WC.WC.OE.OETESTCD.EGSCRNOS.OEGRPID.EGSWOSL"/>

</ItemRef>
<ItemRef ItemOID="IT.OE.OEORRES.EGSCRNOU.EGSWOSL"
  OrderNumber="63"
  Mandatory="NA"
  >
  <def:WhereClauseRef WhereClauseOID="WC.WC.OE.OETESTCD.EGSCRNOU.OEGRPID.EGSWOSL"/>

</ItemRef>
<ItemRef ItemOID="IT.OE.OEORRES.EGSCRUOD.EGSWOSL"
  OrderNumber="64"
  Mandatory="NA"
  >
  <def:WhereClauseRef WhereClauseOID="WC.WC.OE.OETESTCD.EGSCRUOD.OEGRPID.EGSWOSL"/>

</ItemRef>
<ItemRef ItemOID="IT.OE.OEORRES.EGSCRUOS.EGSWOSL"
  OrderNumber="65"
  Mandatory="NA"
  >
  <def:WhereClauseRef WhereClauseOID="WC.WC.OE.OETESTCD.EGSCRUOS.OEGRPID.EGSWOSL"/>

</ItemRef>
<ItemRef ItemOID="IT.OE.OEORRES.EGSCRUOU.EGSWOSL"
  OrderNumber="66"
  Mandatory="NA"
  >
  <def:WhereClauseRef WhereClauseOID="WC.WC.OE.OETESTCD.EGSCRUOU.OEGRPID.EGSWOSL"/>

</ItemRef>
<ItemRef ItemOID="IT.OE.OEORRES.EGSCRTOD.EGSWOSL"
  OrderNumber="67"
  Mandatory="NA"
  >
  <def:WhereClauseRef WhereClauseOID="WC.WC.OE.OETESTCD.EGSCRTOD.OEGRPID.EGSWOSL"/>

</ItemRef>
<ItemRef ItemOID="IT.OE.OEORRES.EGSCRTOS.EGSWOSL"
  OrderNumber="68"
  Mandatory="NA"
  >
  <def:WhereClauseRef WhereClauseOID="WC.WC.OE.OETESTCD.EGSCRTOS.OEGRPID.EGSWOSL"/>

</ItemRef>
<ItemRef ItemOID="IT.OE.OEORRES.EGSCRTOU.EGSWOSL"
  OrderNumber="69"
  Mandatory="NA"
  >
  <def:WhereClauseRef WhereClauseOID="WC.WC.OE.OETESTCD.EGSCRTOU.OEGRPID.EGSWOSL"/>

</ItemRef>
<ItemRef ItemOID="IT.OE.OEORRES.SLBLBLOD.SLBRES"
  OrderNumber="70"
  Mandatory="NA"
  >
  <def:WhereClauseRef WhereClauseOID="WC.WC.OETESTCD.SLBLBLOD.OEGRPID.SLBRES"/>

</ItemRef>
<ItemRef ItemOID="IT.OE.OEORRES.SLBLBLOS.SLBRES"
  OrderNumber="71"
  Mandatory="NA"
  >
  <def:WhereClauseRef WhereClauseOID="WC.WC.OETESTCD.SLBLBLOS.OEGRPID.SLBRES"/>

</ItemRef>
<ItemRef ItemOID="IT.OE.OEORRES.SLBLBLOD.SLBCS"
  OrderNumber="72"
  Mandatory="NA"
  >
  <def:WhereClauseRef WhereClauseOID="WC.WC.OETESTCD.SLBLBLOD.OEGRPID.SLBCS"/>

</ItemRef>
<ItemRef ItemOID="IT.OE.OEORRES.SLBLBLOS.SLBCS"
  OrderNumber="73"
  Mandatory="NA"
  >
  <def:WhereClauseRef WhereClauseOID="WC.WC.OETESTCD.SLBLBLOS.OEGRPID.SLBCS"/>

</ItemRef>
<ItemRef ItemOID="IT.OE.OEORRES.SLBLBLOU.SLBRES"
  OrderNumber="74"
  Mandatory="NA"
  >
  <def:WhereClauseRef WhereClauseOID="WC.WC.OETESTCD.SLBLBLOU.OEGRPID.SLBRES"/>

</ItemRef>
<ItemRef ItemOID="IT.OE.OEORRES.SLBLMEOD.SLBRES"
  OrderNumber="75"
  Mandatory="NA"
  >
  <def:WhereClauseRef WhereClauseOID="WC.WC.OETESTCD.SLBLMEOD.OEGRPID.SLBRES"/>

</ItemRef>
<ItemRef ItemOID="IT.OE.OEORRES.SLBLMEOS.SLBRES"
  OrderNumber="76"
  Mandatory="NA"
  >
  <def:WhereClauseRef WhereClauseOID="WC.WC.OETESTCD.SLBLMEOS.OEGRPID.SLBRES"/>

</ItemRef>
<ItemRef ItemOID="IT.OE.OEORRES.SLBLMEOD.SLBCS"
  OrderNumber="77"
  Mandatory="NA"
  >
  <def:WhereClauseRef WhereClauseOID="WC.WC.OETESTCD.SLBLMEOD.OEGRPID.SLBCS"/>

</ItemRef>
<ItemRef ItemOID="IT.OE.OEORRES.SLBLMEOS.SLBCS"
  OrderNumber="78"
  Mandatory="NA"
  >
  <def:WhereClauseRef WhereClauseOID="WC.WC.OETESTCD.SLBLMEOS.OEGRPID.SLBCS"/>

</ItemRef>
<ItemRef ItemOID="IT.OE.OEORRES.SLBLMEOU.SLBRES"
  OrderNumber="79"
  Mandatory="NA"
  >
  <def:WhereClauseRef WhereClauseOID="WC.WC.OETESTCD.SLBLMEOU.OEGRPID.SLBRES"/>

</ItemRef>
<ItemRef ItemOID="IT.OE.OEORRES.SLBLLUOD.SLBRES"
  OrderNumber="80"
  Mandatory="NA"
  >
  <def:WhereClauseRef WhereClauseOID="WC.WC.OETESTCD.SLBLLUOD.OEGRPID.SLBRES"/>

</ItemRef>
<ItemRef ItemOID="IT.OE.OEORRES.SLBLLUOS.SLBRES"
  OrderNumber="81"
  Mandatory="NA"
  >
  <def:WhereClauseRef WhereClauseOID="WC.WC.OETESTCD.SLBLLUOS.OEGRPID.SLBRES"/>

</ItemRef>
<ItemRef ItemOID="IT.OE.OEORRES.SLBLLUOD.SLBCS"
  OrderNumber="82"
  Mandatory="NA"
  >
  <def:WhereClauseRef WhereClauseOID="WC.WC.OETESTCD.SLBLLUOD.OEGRPID.SLBCS"/>

</ItemRef>
<ItemRef ItemOID="IT.OE.OEORRES.SLBLLUOS.SLBCS"
  OrderNumber="83"
  Mandatory="NA"
  >
  <def:WhereClauseRef WhereClauseOID="WC.WC.OETESTCD.SLBLLUOS.OEGRPID.SLBCS"/>

</ItemRef>
<ItemRef ItemOID="IT.OE.OEORRES.SLBLLUOU.SLBRES"
  OrderNumber="84"
  Mandatory="NA"
  >
  <def:WhereClauseRef WhereClauseOID="WC.WC.OETESTCD.SLBLLUOU.OEGRPID.SLBRES"/>

</ItemRef>
<ItemRef ItemOID="IT.OE.OEORRES.SLBLOPOD.SLBOP"
  OrderNumber="85"
  Mandatory="NA"
  >
  <def:WhereClauseRef WhereClauseOID="WC.WC.OETESTCD.SLBLOPOD.OEGRPID.SLBOP"/>

</ItemRef>
<ItemRef ItemOID="IT.OE.OEORRES.SLBLOPOS.SLBOP"
  OrderNumber="86"
  Mandatory="NA"
  >
  <def:WhereClauseRef WhereClauseOID="WC.WC.OETESTCD.SLBLOPOS.OEGRPID.SLBOP"/>

</ItemRef>
<ItemRef ItemOID="IT.OE.OEORRES.SLBLOPOD.SLBCS"
  OrderNumber="87"
  Mandatory="NA"
  >
  <def:WhereClauseRef WhereClauseOID="WC.WC.OETESTCD.SLBLOPOD.OEGRPID.SLBCS"/>

</ItemRef>
<ItemRef ItemOID="IT.OE.OEORRES.SLBLOPOS.SLBCS"
  OrderNumber="88"
  Mandatory="NA"
  >
  <def:WhereClauseRef WhereClauseOID="WC.WC.OETESTCD.SLBLOPOS.OEGRPID.SLBCS"/>

</ItemRef>
<ItemRef ItemOID="IT.OE.OEORRES.SLBJSLOD.SLBRES"
  OrderNumber="89"
  Mandatory="NA"
  >
  <def:WhereClauseRef WhereClauseOID="WC.WC.OETESTCD.SLBJSLOD.OEGRPID.SLBRES"/>

</ItemRef>
<ItemRef ItemOID="IT.OE.OEORRES.SLBJSLOS.SLBRES"
  OrderNumber="90"
  Mandatory="NA"
  >
  <def:WhereClauseRef WhereClauseOID="WC.WC.OETESTCD.SLBJSLOS.OEGRPID.SLBRES"/>

</ItemRef>
<ItemRef ItemOID="IT.OE.OEORRES.SLBJSLOD.SLBCS"
  OrderNumber="91"
  Mandatory="NA"
  >
  <def:WhereClauseRef WhereClauseOID="WC.WC.OETESTCD.SLBJSLOD.OEGRPID.SLBCS"/>

</ItemRef>
<ItemRef ItemOID="IT.OE.OEORRES.SLBJSLOS.SLBCS"
  OrderNumber="92"
  Mandatory="NA"
  >
  <def:WhereClauseRef WhereClauseOID="WC.WC.OETESTCD.SLBJSLOS.OEGRPID.SLBCS"/>

</ItemRef>
<ItemRef ItemOID="IT.OE.OEORRES.SLBJSLOU.SLBRES"
  OrderNumber="93"
  Mandatory="NA"
  >
  <def:WhereClauseRef WhereClauseOID="WC.WC.OETESTCD.SLBJSLOU.OEGRPID.SLBRES"/>

</ItemRef>
<ItemRef ItemOID="IT.OE.OEORRES.SLBJPCOD.SLBRES"
  OrderNumber="94"
  Mandatory="NA"
  >
  <def:WhereClauseRef WhereClauseOID="WC.WC.OETESTCD.SLBJPCOD.OEGRPID.SLBRES"/>

</ItemRef>
<ItemRef ItemOID="IT.OE.OEORRES.SLBJPCOS.SLBRES"
  OrderNumber="95"
  Mandatory="NA"
  >
  <def:WhereClauseRef WhereClauseOID="WC.WC.OETESTCD.SLBJPCOS.OEGRPID.SLBRES"/>

</ItemRef>
<ItemRef ItemOID="IT.OE.OEORRES.SLBJPCOD.SLBCS"
  OrderNumber="96"
  Mandatory="NA"
  >
  <def:WhereClauseRef WhereClauseOID="WC.WC.OETESTCD.SLBJPCOD.OEGRPID.SLBCS"/>

</ItemRef>
<ItemRef ItemOID="IT.OE.OEORRES.SLBJPCOS.SLBCS"
  OrderNumber="97"
  Mandatory="NA"
  >
  <def:WhereClauseRef WhereClauseOID="WC.WC.OETESTCD.SLBJPCOS.OEGRPID.SLBCS"/>

</ItemRef>
<ItemRef ItemOID="IT.OE.OEORRES.SLBJPCOU.SLBRES"
  OrderNumber="98"
  Mandatory="NA"
  >
  <def:WhereClauseRef WhereClauseOID="WC.WC.OETESTCD.SLBJPCOU.OEGRPID.SLBRES"/>

</ItemRef>
<ItemRef ItemOID="IT.OE.OEORRES.SLBJCSOD.SLBRES"
  OrderNumber="99"
  Mandatory="NA"
  >
  <def:WhereClauseRef WhereClauseOID="WC.WC.OETESTCD.SLBJCSOD.OEGRPID.SLBRES"/>

</ItemRef>
<ItemRef ItemOID="IT.OE.OEORRES.SLBJCSOS.SLBRES"
  OrderNumber="100"
  Mandatory="NA"
  >
  <def:WhereClauseRef WhereClauseOID="WC.WC.OETESTCD.SLBJCSOS.OEGRPID.SLBRES"/>

</ItemRef>
<ItemRef ItemOID="IT.OE.OEORRES.SLBJCSOD.SLBCS"
  OrderNumber="101"
  Mandatory="NA"
  >
  <def:WhereClauseRef WhereClauseOID="WC.WC.OETESTCD.SLBJCSOD.OEGRPID.SLBCS"/>

</ItemRef>
<ItemRef ItemOID="IT.OE.OEORRES.SLBJCSOS.SLBCS"
  OrderNumber="102"
  Mandatory="NA"
  >
  <def:WhereClauseRef WhereClauseOID="WC.WC.OETESTCD.SLBJCSOS.OEGRPID.SLBCS"/>

</ItemRef>
<ItemRef ItemOID="IT.OE.OEORRES.SLBJCSOU.SLBRES"
  OrderNumber="103"
  Mandatory="NA"
  >
  <def:WhereClauseRef WhereClauseOID="WC.WC.OETESTCD.SLBJCSOU.OEGRPID.SLBRES"/>

</ItemRef>
<ItemRef ItemOID="IT.OE.OEORRES.SLBJFSOD.SLBRES"
  OrderNumber="104"
  Mandatory="NA"
  >
  <def:WhereClauseRef WhereClauseOID="WC.WC.OETESTCD.SLBJFSOD.OEGRPID.SLBRES"/>

</ItemRef>
<ItemRef ItemOID="IT.OE.OEORRES.SLBJFSOS.SLBRES"
  OrderNumber="105"
  Mandatory="NA"
  >
  <def:WhereClauseRef WhereClauseOID="WC.WC.OETESTCD.SLBJFSOS.OEGRPID.SLBRES"/>

</ItemRef>
<ItemRef ItemOID="IT.OE.OEORRES.SLBJFSOD.SLBCS"
  OrderNumber="106"
  Mandatory="NA"
  >
  <def:WhereClauseRef WhereClauseOID="WC.WC.OETESTCD.SLBJFSOD.OEGRPID.SLBCS"/>

</ItemRef>
<ItemRef ItemOID="IT.OE.OEORRES.SLBJFSOS.SLBCS"
  OrderNumber="107"
  Mandatory="NA"
  >
  <def:WhereClauseRef WhereClauseOID="WC.WC.OETESTCD.SLBJFSOS.OEGRPID.SLBCS"/>

</ItemRef>
<ItemRef ItemOID="IT.OE.OEORRES.SLBJFSOU.SLBRES"
  OrderNumber="108"
  Mandatory="NA"
  >
  <def:WhereClauseRef WhereClauseOID="WC.WC.OETESTCD.SLBJFSOU.OEGRPID.SLBRES"/>

</ItemRef>
<ItemRef ItemOID="IT.OE.OEORRES.SLBJSYOD.SLBRES"
  OrderNumber="109"
  Mandatory="NA"
  >
  <def:WhereClauseRef WhereClauseOID="WC.WC.OETESTCD.SLBJSYOD.OEGRPID.SLBRES"/>

</ItemRef>
<ItemRef ItemOID="IT.OE.OEORRES.SLBJSYOS.SLBRES"
  OrderNumber="110"
  Mandatory="NA"
  >
  <def:WhereClauseRef WhereClauseOID="WC.WC.OETESTCD.SLBJSYOS.OEGRPID.SLBRES"/>

</ItemRef>
<ItemRef ItemOID="IT.OE.OEORRES.SLBJSYOD.SLBCS"
  OrderNumber="111"
  Mandatory="NA"
  >
  <def:WhereClauseRef WhereClauseOID="WC.WC.OETESTCD.SLBJSYOD.OEGRPID.SLBCS"/>

</ItemRef>
<ItemRef ItemOID="IT.OE.OEORRES.SLBJSYOS.SLBCS"
  OrderNumber="112"
  Mandatory="NA"
  >
  <def:WhereClauseRef WhereClauseOID="WC.WC.OETESTCD.SLBJSYOS.OEGRPID.SLBCS"/>

</ItemRef>
<ItemRef ItemOID="IT.OE.OEORRES.SLBJSYOU.SLBRES"
  OrderNumber="113"
  Mandatory="NA"
  >
  <def:WhereClauseRef WhereClauseOID="WC.WC.OETESTCD.SLBJSYOU.OEGRPID.SLBRES"/>

</ItemRef>
<ItemRef ItemOID="IT.OE.OEORRES.SLBJKEOD.SLBRES"
  OrderNumber="114"
  Mandatory="NA"
  >
  <def:WhereClauseRef WhereClauseOID="WC.WC.OETESTCD.SLBJKEOD.OEGRPID.SLBRES"/>

</ItemRef>
<ItemRef ItemOID="IT.OE.OEORRES.SLBJKEOS.SLBRES"
  OrderNumber="115"
  Mandatory="NA"
  >
  <def:WhereClauseRef WhereClauseOID="WC.WC.OETESTCD.SLBJKEOS.OEGRPID.SLBRES"/>

</ItemRef>
<ItemRef ItemOID="IT.OE.OEORRES.SLBJKEOD.SLBCS"
  OrderNumber="116"
  Mandatory="NA"
  >
  <def:WhereClauseRef WhereClauseOID="WC.WC.OETESTCD.SLBJKEOD.OEGRPID.SLBCS"/>

</ItemRef>
<ItemRef ItemOID="IT.OE.OEORRES.SLBJKEOS.SLBCS"
  OrderNumber="117"
  Mandatory="NA"
  >
  <def:WhereClauseRef WhereClauseOID="WC.WC.OETESTCD.SLBJKEOS.OEGRPID.SLBCS"/>

</ItemRef>
<ItemRef ItemOID="IT.OE.OEORRES.SLBJKEOU.SLBRES"
  OrderNumber="118"
  Mandatory="NA"
  >
  <def:WhereClauseRef WhereClauseOID="WC.WC.OETESTCD.SLBJKEOU.OEGRPID.SLBRES"/>

</ItemRef>
<ItemRef ItemOID="IT.OE.OEORRES.SLBJOPOD.SLBOP"
  OrderNumber="119"
  Mandatory="NA"
  >
  <def:WhereClauseRef WhereClauseOID="WC.WC.OETESTCD.SLBJOPOD.OEGRPID.SLBOP"/>

</ItemRef>
<ItemRef ItemOID="IT.OE.OEORRES.SLBJOPOS.SLBOP"
  OrderNumber="120"
  Mandatory="NA"
  >
  <def:WhereClauseRef WhereClauseOID="WC.WC.OETESTCD.SLBJOPOS.OEGRPID.SLBOP"/>

</ItemRef>
<ItemRef ItemOID="IT.OE.OEORRES.SLBJOPOD.SLBCS"
  OrderNumber="121"
  Mandatory="NA"
  >
  <def:WhereClauseRef WhereClauseOID="WC.WC.OETESTCD.SLBJOPOD.OEGRPID.SLBCS"/>

</ItemRef>
<ItemRef ItemOID="IT.OE.OEORRES.SLBJOPOS.SLBCS"
  OrderNumber="122"
  Mandatory="NA"
  >
  <def:WhereClauseRef WhereClauseOID="WC.WC.OETESTCD.SLBJOPOS.OEGRPID.SLBCS"/>

</ItemRef>
<ItemRef ItemOID="IT.OE.OEORRES.SLBCCROD.SLBRES"
  OrderNumber="123"
  Mandatory="NA"
  >
  <def:WhereClauseRef WhereClauseOID="WC.WC.OETESTCD.SLBCCROD.OEGRPID.SLBRES"/>

</ItemRef>
<ItemRef ItemOID="IT.OE.OEORRES.SLBCCROS.SLBRES"
  OrderNumber="124"
  Mandatory="NA"
  >
  <def:WhereClauseRef WhereClauseOID="WC.WC.OETESTCD.SLBCCROS.OEGRPID.SLBRES"/>

</ItemRef>
<ItemRef ItemOID="IT.OE.OEORRES.SLBCCROD.SLBCS"
  OrderNumber="125"
  Mandatory="NA"
  >
  <def:WhereClauseRef WhereClauseOID="WC.WC.OETESTCD.SLBCCROD.OEGRPID.SLBCS"/>

</ItemRef>
<ItemRef ItemOID="IT.OE.OEORRES.SLBCCROS.SLBCS"
  OrderNumber="126"
  Mandatory="NA"
  >
  <def:WhereClauseRef WhereClauseOID="WC.WC.OETESTCD.SLBCCROS.OEGRPID.SLBCS"/>

</ItemRef>
<ItemRef ItemOID="IT.OE.OEORRES.SLBCCROU.SLBRES"
  OrderNumber="127"
  Mandatory="NA"
  >
  <def:WhereClauseRef WhereClauseOID="WC.WC.OETESTCD.SLBCCROU.OEGRPID.SLBRES"/>

</ItemRef>
<ItemRef ItemOID="IT.OE.OEORRES.SLBCAUOD.SLBRES"
  OrderNumber="128"
  Mandatory="NA"
  >
  <def:WhereClauseRef WhereClauseOID="WC.WC.OETESTCD.SLBCAUOD.OEGRPID.SLBRES"/>

</ItemRef>
<ItemRef ItemOID="IT.OE.OEORRES.SLBCAUOS.SLBRES"
  OrderNumber="129"
  Mandatory="NA"
  >
  <def:WhereClauseRef WhereClauseOID="WC.WC.OETESTCD.SLBCAUOS.OEGRPID.SLBRES"/>

</ItemRef>
<ItemRef ItemOID="IT.OE.OEORRES.SLBCAUOD.SLBCS"
  OrderNumber="130"
  Mandatory="NA"
  >
  <def:WhereClauseRef WhereClauseOID="WC.WC.OETESTCD.SLBCAUOD.OEGRPID.SLBCS"/>

</ItemRef>
<ItemRef ItemOID="IT.OE.OEORRES.SLBCAUOS.SLBCS"
  OrderNumber="131"
  Mandatory="NA"
  >
  <def:WhereClauseRef WhereClauseOID="WC.WC.OETESTCD.SLBCAUOS.OEGRPID.SLBCS"/>

</ItemRef>
<ItemRef ItemOID="IT.OE.OEORRES.SLBCAUOU.SLBRES"
  OrderNumber="132"
  Mandatory="NA"
  >
  <def:WhereClauseRef WhereClauseOID="WC.WC.OETESTCD.SLBCAUOU.OEGRPID.SLBRES"/>

</ItemRef>
<ItemRef ItemOID="IT.OE.OEORRES.SLBCCNOD.SLBRES"
  OrderNumber="133"
  Mandatory="NA"
  >
  <def:WhereClauseRef WhereClauseOID="WC.WC.OETESTCD.SLBCCNOD.OEGRPID.SLBRES"/>

</ItemRef>
<ItemRef ItemOID="IT.OE.OEORRES.SLBCCNOS.SLBRES"
  OrderNumber="134"
  Mandatory="NA"
  >
  <def:WhereClauseRef WhereClauseOID="WC.WC.OETESTCD.SLBCCNOS.OEGRPID.SLBRES"/>

</ItemRef>
<ItemRef ItemOID="IT.OE.OEORRES.SLBCCNOD.SLBCS"
  OrderNumber="135"
  Mandatory="NA"
  >
  <def:WhereClauseRef WhereClauseOID="WC.WC.OETESTCD.SLBCCNOD.OEGRPID.SLBCS"/>

</ItemRef>
<ItemRef ItemOID="IT.OE.OEORRES.SLBCCNOS.SLBCS"
  OrderNumber="136"
  Mandatory="NA"
  >
  <def:WhereClauseRef WhereClauseOID="WC.WC.OETESTCD.SLBCCNOS.OEGRPID.SLBCS"/>

</ItemRef>
<ItemRef ItemOID="IT.OE.OEORRES.SLBCCNOU.SLBRES"
  OrderNumber="137"
  Mandatory="NA"
  >
  <def:WhereClauseRef WhereClauseOID="WC.WC.OETESTCD.SLBCCNOU.OEGRPID.SLBRES"/>

</ItemRef>
<ItemRef ItemOID="IT.OE.OEORRES.SLBCFKOD.SLBRES"
  OrderNumber="138"
  Mandatory="NA"
  >
  <def:WhereClauseRef WhereClauseOID="WC.WC.OETESTCD.SLBCFKOD.OEGRPID.SLBRES"/>

</ItemRef>
<ItemRef ItemOID="IT.OE.OEORRES.SLBCFKOS.SLBRES"
  OrderNumber="139"
  Mandatory="NA"
  >
  <def:WhereClauseRef WhereClauseOID="WC.WC.OETESTCD.SLBCFKOS.OEGRPID.SLBRES"/>

</ItemRef>
<ItemRef ItemOID="IT.OE.OEORRES.SLBCFKOD.SLBCS"
  OrderNumber="140"
  Mandatory="NA"
  >
  <def:WhereClauseRef WhereClauseOID="WC.WC.OETESTCD.SLBCFKOD.OEGRPID.SLBCS"/>

</ItemRef>
<ItemRef ItemOID="IT.OE.OEORRES.SLBCFKOS.SLBCS"
  OrderNumber="141"
  Mandatory="NA"
  >
  <def:WhereClauseRef WhereClauseOID="WC.WC.OETESTCD.SLBCFKOS.OEGRPID.SLBCS"/>

</ItemRef>
<ItemRef ItemOID="IT.OE.OEORRES.SLBCFKOU.SLBRES"
  OrderNumber="142"
  Mandatory="NA"
  >
  <def:WhereClauseRef WhereClauseOID="WC.WC.OETESTCD.SLBCFKOU.OEGRPID.SLBRES"/>

</ItemRef>
<ItemRef ItemOID="IT.OE.OEORRES.SLBCCTOD.SLBRES"
  OrderNumber="143"
  Mandatory="NA"
  >
  <def:WhereClauseRef WhereClauseOID="WC.WC.OETESTCD.SLBCCTOD.OEGRPID.SLBRES"/>

</ItemRef>
<ItemRef ItemOID="IT.OE.OEORRES.SLBCCTOS.SLBRES"
  OrderNumber="144"
  Mandatory="NA"
  >
  <def:WhereClauseRef WhereClauseOID="WC.WC.OETESTCD.SLBCCTOS.OEGRPID.SLBRES"/>

</ItemRef>
<ItemRef ItemOID="IT.OE.OEORRES.SLBCCTOD.SLBCS"
  OrderNumber="145"
  Mandatory="NA"
  >
  <def:WhereClauseRef WhereClauseOID="WC.WC.OETESTCD.SLBCCTOD.OEGRPID.SLBCS"/>

</ItemRef>
<ItemRef ItemOID="IT.OE.OEORRES.SLBCCTOS.SLBCS"
  OrderNumber="146"
  Mandatory="NA"
  >
  <def:WhereClauseRef WhereClauseOID="WC.WC.OETESTCD.SLBCCTOS.OEGRPID.SLBCS"/>

</ItemRef>
<ItemRef ItemOID="IT.OE.OEORRES.SLBCCTOU.SLBRES"
  OrderNumber="147"
  Mandatory="NA"
  >
  <def:WhereClauseRef WhereClauseOID="WC.WC.OETESTCD.SLBCCTOU.OEGRPID.SLBRES"/>

</ItemRef>
<ItemRef ItemOID="IT.OE.OEORRES.SLBCSCOD.SLBRES"
  OrderNumber="148"
  Mandatory="NA"
  >
  <def:WhereClauseRef WhereClauseOID="WC.WC.OETESTCD.SLBCSCOD.OEGRPID.SLBRES"/>

</ItemRef>
<ItemRef ItemOID="IT.OE.OEORRES.SLBCSCOS.SLBRES"
  OrderNumber="149"
  Mandatory="NA"
  >
  <def:WhereClauseRef WhereClauseOID="WC.WC.OETESTCD.SLBCSCOS.OEGRPID.SLBRES"/>

</ItemRef>
<ItemRef ItemOID="IT.OE.OEORRES.SLBCSCOD.SLBCS"
  OrderNumber="150"
  Mandatory="NA"
  >
  <def:WhereClauseRef WhereClauseOID="WC.WC.OETESTCD.SLBCSCOD.OEGRPID.SLBCS"/>

</ItemRef>
<ItemRef ItemOID="IT.OE.OEORRES.SLBCSCOS.SLBCS"
  OrderNumber="151"
  Mandatory="NA"
  >
  <def:WhereClauseRef WhereClauseOID="WC.WC.OETESTCD.SLBCSCOS.OEGRPID.SLBCS"/>

</ItemRef>
<ItemRef ItemOID="IT.OE.OEORRES.SLBCSCOU.SLBRES"
  OrderNumber="152"
  Mandatory="NA"
  >
  <def:WhereClauseRef WhereClauseOID="WC.WC.OETESTCD.SLBCSCOU.OEGRPID.SLBRES"/>

</ItemRef>
<ItemRef ItemOID="IT.OE.OEORRES.SLBCMEOD.SLBRES"
  OrderNumber="153"
  Mandatory="NA"
  >
  <def:WhereClauseRef WhereClauseOID="WC.WC.OETESTCD.SLBCMEOD.OEGRPID.SLBRES"/>

</ItemRef>
<ItemRef ItemOID="IT.OE.OEORRES.SLBCMEOS.SLBRES"
  OrderNumber="154"
  Mandatory="NA"
  >
  <def:WhereClauseRef WhereClauseOID="WC.WC.OETESTCD.SLBCMEOS.OEGRPID.SLBRES"/>

</ItemRef>
<ItemRef ItemOID="IT.OE.OEORRES.SLBCMEOD.SLBCS"
  OrderNumber="155"
  Mandatory="NA"
  >
  <def:WhereClauseRef WhereClauseOID="WC.WC.OETESTCD.SLBCMEOD.OEGRPID.SLBCS"/>

</ItemRef>
<ItemRef ItemOID="IT.OE.OEORRES.SLBCMEOS.SLBCS"
  OrderNumber="156"
  Mandatory="NA"
  >
  <def:WhereClauseRef WhereClauseOID="WC.WC.OETESTCD.SLBCMEOS.OEGRPID.SLBCS"/>

</ItemRef>
<ItemRef ItemOID="IT.OE.OEORRES.SLBCMEOU.SLBRES"
  OrderNumber="157"
  Mandatory="NA"
  >
  <def:WhereClauseRef WhereClauseOID="WC.WC.OETESTCD.SLBCMEOU.OEGRPID.SLBRES"/>

</ItemRef>
<ItemRef ItemOID="IT.OE.OEORRES.SLBCCEOD.SLBRES"
  OrderNumber="158"
  Mandatory="NA"
  >
  <def:WhereClauseRef WhereClauseOID="WC.WC.OETESTCD.SLBCCEOD.OEGRPID.SLBRES"/>

</ItemRef>
<ItemRef ItemOID="IT.OE.OEORRES.SLBCCEOS.SLBRES"
  OrderNumber="159"
  Mandatory="NA"
  >
  <def:WhereClauseRef WhereClauseOID="WC.WC.OETESTCD.SLBCCEOS.OEGRPID.SLBRES"/>

</ItemRef>
<ItemRef ItemOID="IT.OE.OEORRES.SLBCCEOD.SLBCS"
  OrderNumber="160"
  Mandatory="NA"
  >
  <def:WhereClauseRef WhereClauseOID="WC.WC.OETESTCD.SLBCCEOD.OEGRPID.SLBCS"/>

</ItemRef>
<ItemRef ItemOID="IT.OE.OEORRES.SLBCCEOS.SLBCS"
  OrderNumber="161"
  Mandatory="NA"
  >
  <def:WhereClauseRef WhereClauseOID="WC.WC.OETESTCD.SLBCCEOS.OEGRPID.SLBCS"/>

</ItemRef>
<ItemRef ItemOID="IT.OE.OEORRES.SLBCCEOU.SLBRES"
  OrderNumber="162"
  Mandatory="NA"
  >
  <def:WhereClauseRef WhereClauseOID="WC.WC.OETESTCD.SLBCCEOU.OEGRPID.SLBRES"/>

</ItemRef>
<ItemRef ItemOID="IT.OE.OEORRES.SLBCOPOD.SLBOP"
  OrderNumber="163"
  Mandatory="NA"
  >
  <def:WhereClauseRef WhereClauseOID="WC.WC.OETESTCD.SLBCOPOD.OEGRPID.SLBOP"/>

</ItemRef>
<ItemRef ItemOID="IT.OE.OEORRES.SLBCOPOS.SLBOP"
  OrderNumber="164"
  Mandatory="NA"
  >
  <def:WhereClauseRef WhereClauseOID="WC.WC.OETESTCD.SLBCOPOS.OEGRPID.SLBOP"/>

</ItemRef>
<ItemRef ItemOID="IT.OE.OEORRES.SLBCOPOD.SLBCS"
  OrderNumber="165"
  Mandatory="NA"
  >
  <def:WhereClauseRef WhereClauseOID="WC.WC.OETESTCD.SLBCOPOD.OEGRPID.SLBCS"/>

</ItemRef>
<ItemRef ItemOID="IT.OE.OEORRES.SLBCOPOS.SLBCS"
  OrderNumber="166"
  Mandatory="NA"
  >
  <def:WhereClauseRef WhereClauseOID="WC.WC.OETESTCD.SLBCOPOS.OEGRPID.SLBCS"/>

</ItemRef>
<ItemRef ItemOID="IT.OE.OEORRES.SLBACCOD.SLBRES"
  OrderNumber="167"
  Mandatory="NA"
  >
  <def:WhereClauseRef WhereClauseOID="WC.WC.OETESTCD.SLBACCOD.OEGRPID.SLBRES"/>

</ItemRef>
<ItemRef ItemOID="IT.OE.OEORRES.SLBACCOS.SLBRES"
  OrderNumber="168"
  Mandatory="NA"
  >
  <def:WhereClauseRef WhereClauseOID="WC.WC.OETESTCD.SLBACCOS.OEGRPID.SLBRES"/>

</ItemRef>
<ItemRef ItemOID="IT.OE.OEORRES.SLBACCOD.SLBCS"
  OrderNumber="169"
  Mandatory="NA"
  >
  <def:WhereClauseRef WhereClauseOID="WC.WC.OETESTCD.SLBACCOD.OEGRPID.SLBCS"/>

</ItemRef>
<ItemRef ItemOID="IT.OE.OEORRES.SLBACCOS.SLBCS"
  OrderNumber="170"
  Mandatory="NA"
  >
  <def:WhereClauseRef WhereClauseOID="WC.WC.OETESTCD.SLBACCOS.OEGRPID.SLBCS"/>

</ItemRef>
<ItemRef ItemOID="IT.OE.OEORRES.SLBACCOU.SLBRES"
  OrderNumber="171"
  Mandatory="NA"
  >
  <def:WhereClauseRef WhereClauseOID="WC.WC.OETESTCD.SLBACCOU.OEGRPID.SLBRES"/>

</ItemRef>
<ItemRef ItemOID="IT.OE.OEORRES.SLBACFOD.SLBRES"
  OrderNumber="172"
  Mandatory="NA"
  >
  <def:WhereClauseRef WhereClauseOID="WC.WC.OETESTCD.SLBACFOD.OEGRPID.SLBRES"/>

</ItemRef>
<ItemRef ItemOID="IT.OE.OEORRES.SLBACFOS.SLBRES"
  OrderNumber="173"
  Mandatory="NA"
  >
  <def:WhereClauseRef WhereClauseOID="WC.WC.OETESTCD.SLBACFOS.OEGRPID.SLBRES"/>

</ItemRef>
<ItemRef ItemOID="IT.OE.OEORRES.SLBACFOD.SLBCS"
  OrderNumber="174"
  Mandatory="NA"
  >
  <def:WhereClauseRef WhereClauseOID="WC.WC.OETESTCD.SLBACFOD.OEGRPID.SLBCS"/>

</ItemRef>
<ItemRef ItemOID="IT.OE.OEORRES.SLBACFOS.SLBCS"
  OrderNumber="175"
  Mandatory="NA"
  >
  <def:WhereClauseRef WhereClauseOID="WC.WC.OETESTCD.SLBACFOS.OEGRPID.SLBCS"/>

</ItemRef>
<ItemRef ItemOID="IT.OE.OEORRES.SLBACFOU.SLBRES"
  OrderNumber="176"
  Mandatory="NA"
  >
  <def:WhereClauseRef WhereClauseOID="WC.WC.OETESTCD.SLBACFOU.OEGRPID.SLBRES"/>

</ItemRef>
<ItemRef ItemOID="IT.OE.OEORRES.SLBAOPOD.SLBOP"
  OrderNumber="177"
  Mandatory="NA"
  >
  <def:WhereClauseRef WhereClauseOID="WC.WC.OETESTCD.SLBAOPOD.OEGRPID.SLBOP"/>

</ItemRef>
<ItemRef ItemOID="IT.OE.OEORRES.SLBAOPOS.SLBOP"
  OrderNumber="178"
  Mandatory="NA"
  >
  <def:WhereClauseRef WhereClauseOID="WC.WC.OETESTCD.SLBAOPOS.OEGRPID.SLBOP"/>

</ItemRef>
<ItemRef ItemOID="IT.OE.OEORRES.SLBAOPOD.SLBCS"
  OrderNumber="179"
  Mandatory="NA"
  >
  <def:WhereClauseRef WhereClauseOID="WC.WC.OETESTCD.SLBAOPOD.OEGRPID.SLBCS"/>

</ItemRef>
<ItemRef ItemOID="IT.OE.OEORRES.SLBAOPOS.SLBCS"
  OrderNumber="180"
  Mandatory="NA"
  >
  <def:WhereClauseRef WhereClauseOID="WC.WC.OETESTCD.SLBAOPOS.OEGRPID.SLBCS"/>

</ItemRef>
<ItemRef ItemOID="IT.OE.OEORRES.SLBALSOD.SLBRES"
  OrderNumber="181"
  Mandatory="NA"
  >
  <def:WhereClauseRef WhereClauseOID="WC.WC.OETESTCD.SLBALSOD.OEGRPID.SLBRES"/>

</ItemRef>
<ItemRef ItemOID="IT.OE.OEORRES.SLBALSOS.SLBRES"
  OrderNumber="182"
  Mandatory="NA"
  >
  <def:WhereClauseRef WhereClauseOID="WC.WC.OETESTCD.SLBALSOS.OEGRPID.SLBRES"/>

</ItemRef>
<ItemRef ItemOID="IT.OE.OEORRES.SLBALSOU.SLBRES"
  OrderNumber="183"
  Mandatory="NA"
  >
  <def:WhereClauseRef WhereClauseOID="WC.WC.OETESTCD.SLBALSOU.OEGRPID.SLBRES"/>

</ItemRef>
<ItemRef ItemOID="IT.OE.OEORRES.SLBALOOD.SLBRES"
  OrderNumber="184"
  Mandatory="NA"
  >
  <def:WhereClauseRef WhereClauseOID="WC.WC.OETESTCD.SLBALOOD.OEGRPID.SLBRES"/>

</ItemRef>
<ItemRef ItemOID="IT.OE.OEORRES.SLBALOOS.SLBRES"
  OrderNumber="185"
  Mandatory="NA"
  >
  <def:WhereClauseRef WhereClauseOID="WC.WC.OETESTCD.SLBALOOS.OEGRPID.SLBRES"/>

</ItemRef>
<ItemRef ItemOID="IT.OE.OEORRES.SLBALOOU.SLBRES"
  OrderNumber="186"
  Mandatory="NA"
  >
  <def:WhereClauseRef WhereClauseOID="WC.WC.OETESTCD.SLBALOOU.OEGRPID.SLBRES"/>

</ItemRef>
<ItemRef ItemOID="IT.OE.OEORRES.SLBLSCOM.SLBRES"
  OrderNumber="187"
  Mandatory="NA"
  >
  <def:WhereClauseRef WhereClauseOID="WC.WC.OETESTCD.SLBLSCOM.OEGRPID.SLBRES"/>

</ItemRef>
<ItemRef ItemOID="IT.OE.OEORRES.CLSIZ2OD.CLSRES"
  OrderNumber="188"
  Mandatory="NA"
  >
  <def:WhereClauseRef WhereClauseOID="WC.WC.OETESTCD.CLSZ2IOD.OEGRPID.CLSRES"/>

</ItemRef>
<ItemRef ItemOID="IT.OE.OEORRES.CLSIZ2OS.CLSRES"
  OrderNumber="189"
  Mandatory="NA"
  >
  <def:WhereClauseRef WhereClauseOID="WC.WC.OETESTCD.CLSZ2IOS.OEGRPID.CLSRES"/>

</ItemRef>
<ItemRef ItemOID="IT.OE.OEORRES.CLSIZ2OD.CLSCS"
  OrderNumber="190"
  Mandatory="NA"
  >
  <def:WhereClauseRef WhereClauseOID="WC.WC.OETESTCD.CLSZ2IOD.OEGRPID.CLSCS"/>

</ItemRef>
<ItemRef ItemOID="IT.OE.OEORRES.CLSIZ2OS.CLSCS"
  OrderNumber="191"
  Mandatory="NA"
  >
  <def:WhereClauseRef WhereClauseOID="WC.WC.OETESTCD.CLSZ2IOS.OEGRPID.CLSCS"/>

</ItemRef>
<ItemRef ItemOID="IT.OE.OEORRES.CLSIZ2OU.CLSRES"
  OrderNumber="192"
  Mandatory="NA"
  >
  <def:WhereClauseRef WhereClauseOID="WC.WC.OETESTCD.CLSZ2IOU.OEGRPID.CLSRES"/>

</ItemRef>
<ItemRef ItemOID="IT.OE.OEORRES.CLSIZ3OD.CLSRES"
  OrderNumber="193"
  Mandatory="NA"
  >
  <def:WhereClauseRef WhereClauseOID="WC.WC.OETESTCD.CLSZ3IOD.OEGRPID.CLSRES"/>

</ItemRef>
<ItemRef ItemOID="IT.OE.OEORRES.CLSIZ3OS.CLSRES"
  OrderNumber="194"
  Mandatory="NA"
  >
  <def:WhereClauseRef WhereClauseOID="WC.WC.OETESTCD.CLSZ3IOS.OEGRPID.CLSRES"/>

</ItemRef>
<ItemRef ItemOID="IT.OE.OEORRES.CLSIZ3OD.CLSCS"
  OrderNumber="195"
  Mandatory="NA"
  >
  <def:WhereClauseRef WhereClauseOID="WC.WC.OETESTCD.CLSZ3IOD.OEGRPID.CLSCS"/>

</ItemRef>
<ItemRef ItemOID="IT.OE.OEORRES.CLSIZ3OS.CLSCS"
  OrderNumber="196"
  Mandatory="NA"
  >
  <def:WhereClauseRef WhereClauseOID="WC.WC.OETESTCD.CLSZ3IOS.OEGRPID.CLSCS"/>

</ItemRef>
<ItemRef ItemOID="IT.OE.OEORRES.CLSIZ3OU.CLSRES"
  OrderNumber="197"
  Mandatory="NA"
  >
  <def:WhereClauseRef WhereClauseOID="WC.WC.OETESTCD.CLSZ3IOU.OEGRPID.CLSRES"/>

</ItemRef>
<ItemRef ItemOID="IT.OE.OEORRES.CLSIZ4OD.CLSRES"
  OrderNumber="198"
  Mandatory="NA"
  >
  <def:WhereClauseRef WhereClauseOID="WC.WC.OETESTCD.CLSZ4IOD.OEGRPID.CLSRES"/>

</ItemRef>
<ItemRef ItemOID="IT.OE.OEORRES.CLSIZ4OS.CLSRES"
  OrderNumber="199"
  Mandatory="NA"
  >
  <def:WhereClauseRef WhereClauseOID="WC.WC.OETESTCD.CLSZ4IOS.OEGRPID.CLSRES"/>

</ItemRef>
<ItemRef ItemOID="IT.OE.OEORRES.CLSIZ4OD.CLSCS"
  OrderNumber="200"
  Mandatory="NA"
  >
  <def:WhereClauseRef WhereClauseOID="WC.WC.OETESTCD.CLSZ4IOD.OEGRPID.CLSCS"/>

</ItemRef>
<ItemRef ItemOID="IT.OE.OEORRES.CLSIZ4OS.CLSCS"
  OrderNumber="201"
  Mandatory="NA"
  >
  <def:WhereClauseRef WhereClauseOID="WC.WC.OETESTCD.CLSZ4IOS.OEGRPID.CLSCS"/>

</ItemRef>
<ItemRef ItemOID="IT.OE.OEORRES.CLSIZ4OU.CLSRES"
  OrderNumber="202"
  Mandatory="NA"
  >
  <def:WhereClauseRef WhereClauseOID="WC.WC.OETESTCD.CLSZ4IOU.OEGRPID.CLSRES"/>

</ItemRef>
<ItemRef ItemOID="IT.OE.OEORRES.CLSIZ5OD.CLSRES"
  OrderNumber="203"
  Mandatory="NA"
  >
  <def:WhereClauseRef WhereClauseOID="WC.WC.OETESTCD.CLSZ5IOD.OEGRPID.CLSRES"/>

</ItemRef>
<ItemRef ItemOID="IT.OE.OEORRES.CLSIZ5OS.CLSRES"
  OrderNumber="204"
  Mandatory="NA"
  >
  <def:WhereClauseRef WhereClauseOID="WC.WC.OETESTCD.CLSZ5IOS.OEGRPID.CLSRES"/>

</ItemRef>
<ItemRef ItemOID="IT.OE.OEORRES.CLSIZ5OD.CLSCS"
  OrderNumber="205"
  Mandatory="NA"
  >
  <def:WhereClauseRef WhereClauseOID="WC.WC.OETESTCD.CLSZ5IOD.OEGRPID.CLSCS"/>

</ItemRef>
<ItemRef ItemOID="IT.OE.OEORRES.CLSIZ5OS.CLSCS"
  OrderNumber="206"
  Mandatory="NA"
  >
  <def:WhereClauseRef WhereClauseOID="WC.WC.OETESTCD.CLSZ5IOS.OEGRPID.CLSCS"/>

</ItemRef>
<ItemRef ItemOID="IT.OE.OEORRES.CLSIZ5OU.CLSRES"
  OrderNumber="207"
  Mandatory="NA"
  >
  <def:WhereClauseRef WhereClauseOID="WC.WC.OETESTCD.CLSZ5IOU.OEGRPID.CLSRES"/>

</ItemRef>
<ItemRef ItemOID="IT.OE.OEORRES.CLSIOPOD.CLSOP"
  OrderNumber="208"
  Mandatory="NA"
  >
  <def:WhereClauseRef WhereClauseOID="WC.WC.OETESTCD.CLSOTIOD.OEGRPID.CLSOP"/>

</ItemRef>
<ItemRef ItemOID="IT.OE.OEORRES.CLSIOPOS.CLSOP"
  OrderNumber="209"
  Mandatory="NA"
  >
  <def:WhereClauseRef WhereClauseOID="WC.WC.OETESTCD.CLSOTIOS.OEGRPID.CLSOP"/>

</ItemRef>
<ItemRef ItemOID="IT.OE.OEORRES.CLSIOPOD.CLSCS"
  OrderNumber="210"
  Mandatory="NA"
  >
  <def:WhereClauseRef WhereClauseOID="WC.WC.OETESTCD.CLSOTIOD.OEGRPID.CLSCS"/>

</ItemRef>
<ItemRef ItemOID="IT.OE.OEORRES.CLSIOPOS.CLSCS"
  OrderNumber="211"
  Mandatory="NA"
  >
  <def:WhereClauseRef WhereClauseOID="WC.WC.OETESTCD.CLSOTIOS.OEGRPID.CLSCS"/>

</ItemRef>
<ItemRef ItemOID="IT.OE.OEORRES.CLSOZ1OD.CLSRES"
  OrderNumber="212"
  Mandatory="NA"
  >
  <def:WhereClauseRef WhereClauseOID="WC.WC.OETESTCD.CLSZ1OOD.OEGRPID.CLSRES"/>

</ItemRef>
<ItemRef ItemOID="IT.OE.OEORRES.CLSOZ1OS.CLSRES"
  OrderNumber="213"
  Mandatory="NA"
  >
  <def:WhereClauseRef WhereClauseOID="WC.WC.OETESTCD.CLSZ1OOS.OEGRPID.CLSRES"/>

</ItemRef>
<ItemRef ItemOID="IT.OE.OEORRES.CLSOZ1OD.CLSCS"
  OrderNumber="214"
  Mandatory="NA"
  >
  <def:WhereClauseRef WhereClauseOID="WC.WC.OETESTCD.CLSZ1OOD.OEGRPID.CLSCS"/>

</ItemRef>
<ItemRef ItemOID="IT.OE.OEORRES.CLSOZ1OS.CLSCS"
  OrderNumber="215"
  Mandatory="NA"
  >
  <def:WhereClauseRef WhereClauseOID="WC.WC.OETESTCD.CLSZ1OOS.OEGRPID.CLSCS"/>

</ItemRef>
<ItemRef ItemOID="IT.OE.OEORRES.CLSOZ1OU.CLSRES"
  OrderNumber="216"
  Mandatory="NA"
  >
  <def:WhereClauseRef WhereClauseOID="WC.WC.OETESTCD.CLSZ1OOU.OEGRPID.CLSRES"/>

</ItemRef>
<ItemRef ItemOID="IT.OE.OEORRES.CLSOZ6OD.CLSRES"
  OrderNumber="217"
  Mandatory="NA"
  >
  <def:WhereClauseRef WhereClauseOID="WC.WC.OETESTCD.CLSZ6OOD.OEGRPID.CLSRES"/>

</ItemRef>
<ItemRef ItemOID="IT.OE.OEORRES.CLSOZ6OS.CLSRES"
  OrderNumber="218"
  Mandatory="NA"
  >
  <def:WhereClauseRef WhereClauseOID="WC.WC.OETESTCD.CLSZ6OOS.OEGRPID.CLSRES"/>

</ItemRef>
<ItemRef ItemOID="IT.OE.OEORRES.CLSOZ6OD.CLSCS"
  OrderNumber="219"
  Mandatory="NA"
  >
  <def:WhereClauseRef WhereClauseOID="WC.WC.OETESTCD.CLSZ6OOD.OEGRPID.CLSCS"/>

</ItemRef>
<ItemRef ItemOID="IT.OE.OEORRES.CLSOZ6OS.CLSCS"
  OrderNumber="220"
  Mandatory="NA"
  >
  <def:WhereClauseRef WhereClauseOID="WC.WC.OETESTCD.CLSZ6OOS.OEGRPID.CLSCS"/>

</ItemRef>
<ItemRef ItemOID="IT.OE.OEORRES.CLSOZ6OU.CLSRES"
  OrderNumber="221"
  Mandatory="NA"
  >
  <def:WhereClauseRef WhereClauseOID="WC.WC.OETESTCD.CLSZ6OOU.OEGRPID.CLSRES"/>

</ItemRef>
<ItemRef ItemOID="IT.OE.OEORRES.CLSOOPOD.CLSOP"
  OrderNumber="222"
  Mandatory="NA"
  >
  <def:WhereClauseRef WhereClauseOID="WC.WC.OETESTCD.CLSOTOOD.OEGRPID.CLSOP"/>

</ItemRef>
<ItemRef ItemOID="IT.OE.OEORRES.CLSOOPOS.CLSOP"
  OrderNumber="223"
  Mandatory="NA"
  >
  <def:WhereClauseRef WhereClauseOID="WC.WC.OETESTCD.CLSOTOOS.OEGRPID.CLSOP"/>

</ItemRef>
<ItemRef ItemOID="IT.OE.OEORRES.CLSOOPOD.CLSCS"
  OrderNumber="224"
  Mandatory="NA"
  >
  <def:WhereClauseRef WhereClauseOID="WC.WC.OETESTCD.CLSOTOOD.OEGRPID.CLSCS"/>

</ItemRef>
<ItemRef ItemOID="IT.OE.OEORRES.CLSOOPOS.CLSCS"
  OrderNumber="225"
  Mandatory="NA"
  >
  <def:WhereClauseRef WhereClauseOID="WC.WC.OETESTCD.CLSOTOOS.OEGRPID.CLSCS"/>

</ItemRef>
<ItemRef ItemOID="IT.OE.OEORRES.CFSSUPOD.CFSRES"
  OrderNumber="226"
  Mandatory="NA"
  >
  <def:WhereClauseRef WhereClauseOID="WC.WC.OETESTCD.CFSSUPOD.OEGRPID.CFSRES"/>

</ItemRef>
<ItemRef ItemOID="IT.OE.OEORRES.CFSSUPOS.CFSRES"
  OrderNumber="227"
  Mandatory="NA"
  >
  <def:WhereClauseRef WhereClauseOID="WC.WC.OETESTCD.CFSSUPOS.OEGRPID.CFSRES"/>

</ItemRef>
<ItemRef ItemOID="IT.OE.OEORRES.CFSSUPOD.CFSCS"
  OrderNumber="228"
  Mandatory="NA"
  >
  <def:WhereClauseRef WhereClauseOID="WC.WC.OETESTCD.CFSSUPOD.OEGRPID.CFSCS"/>

</ItemRef>
<ItemRef ItemOID="IT.OE.OEORRES.CFSSUPOS.CFSCS"
  OrderNumber="229"
  Mandatory="NA"
  >
  <def:WhereClauseRef WhereClauseOID="WC.WC.OETESTCD.CFSSUPOS.OEGRPID.CFSCS"/>

</ItemRef>
<ItemRef ItemOID="IT.OE.OEORRES.CFSSUPOU.CFSRES"
  OrderNumber="230"
  Mandatory="NA"
  >
  <def:WhereClauseRef WhereClauseOID="WC.WC.OETESTCD.CFSSUPOU.OEGRPID.CFSRES"/>

</ItemRef>
<ItemRef ItemOID="IT.OE.OEORRES.CFSCTLOD.CFSRES"
  OrderNumber="231"
  Mandatory="NA"
  >
  <def:WhereClauseRef WhereClauseOID="WC.WC.OETESTCD.CFSCTLOD.OEGRPID.CFSRES"/>

</ItemRef>
<ItemRef ItemOID="IT.OE.OEORRES.CFSCTLOS.CFSRES"
  OrderNumber="232"
  Mandatory="NA"
  >
  <def:WhereClauseRef WhereClauseOID="WC.WC.OETESTCD.CFSCTLOS.OEGRPID.CFSRES"/>

</ItemRef>
<ItemRef ItemOID="IT.OE.OEORRES.CFSCTLOD.CFSCS"
  OrderNumber="233"
  Mandatory="NA"
  >
  <def:WhereClauseRef WhereClauseOID="WC.WC.OETESTCD.CFSCTLOD.OEGRPID.CFSCS"/>

</ItemRef>
<ItemRef ItemOID="IT.OE.OEORRES.CFSCTLOS.CFSCS"
  OrderNumber="234"
  Mandatory="NA"
  >
  <def:WhereClauseRef WhereClauseOID="WC.WC.OETESTCD.CFSCTLOS.OEGRPID.CFSCS"/>

</ItemRef>
<ItemRef ItemOID="IT.OE.OEORRES.CFSCTLOU.CFSRES"
  OrderNumber="235"
  Mandatory="NA"
  >
  <def:WhereClauseRef WhereClauseOID="WC.WC.OETESTCD.CFSCTLOU.OEGRPID.CFSRES"/>

</ItemRef>
<ItemRef ItemOID="IT.OE.OEORRES.CFSINFOD.CFSRES"
  OrderNumber="236"
  Mandatory="NA"
  >
  <def:WhereClauseRef WhereClauseOID="WC.WC.OETESTCD.CFSINFOD.OEGRPID.CFSRES"/>

</ItemRef>
<ItemRef ItemOID="IT.OE.OEORRES.CFSINFOS.CFSRES"
  OrderNumber="237"
  Mandatory="NA"
  >
  <def:WhereClauseRef WhereClauseOID="WC.WC.OETESTCD.CFSINFOS.OEGRPID.CFSRES"/>

</ItemRef>
<ItemRef ItemOID="IT.OE.OEORRES.CFSINFOD.CFSCS"
  OrderNumber="238"
  Mandatory="NA"
  >
  <def:WhereClauseRef WhereClauseOID="WC.WC.OETESTCD.CFSINFOD.OEGRPID.CFSCS"/>

</ItemRef>
<ItemRef ItemOID="IT.OE.OEORRES.CFSINFOS.CFSCS"
  OrderNumber="239"
  Mandatory="NA"
  >
  <def:WhereClauseRef WhereClauseOID="WC.WC.OETESTCD.CFSINFOS.OEGRPID.CFSCS"/>

</ItemRef>
<ItemRef ItemOID="IT.OE.OEORRES.CFSINFOU.CFSRES"
  OrderNumber="240"
  Mandatory="NA"
  >
  <def:WhereClauseRef WhereClauseOID="WC.WC.OETESTCD.CFSINFOU.OEGRPID.CFSRES"/>

</ItemRef>
<ItemRef ItemOID="IT.OE.OEORRES.CFSOPOD.CFSOP"
  OrderNumber="241"
  Mandatory="NA"
  >
  <def:WhereClauseRef WhereClauseOID="WC.WC.OETESTCD.CFSOTHOD.OEGRPID.CFSOP"/>

</ItemRef>
<ItemRef ItemOID="IT.OE.OEORRES.CFSOPOS.CFSOP"
  OrderNumber="242"
  Mandatory="NA"
  >
  <def:WhereClauseRef WhereClauseOID="WC.WC.OETESTCD.CFSOTHOS.OEGRPID.CFSOP"/>

</ItemRef>
<ItemRef ItemOID="IT.OE.OEORRES.CFSOPOD.CFSCS"
  OrderNumber="243"
  Mandatory="NA"
  >
  <def:WhereClauseRef WhereClauseOID="WC.WC.OETESTCD.CFSOTHOD.OEGRPID.CFSCS"/>

</ItemRef>
<ItemRef ItemOID="IT.OE.OEORRES.CFSOPOS.CFSCS"
  OrderNumber="244"
  Mandatory="NA"
  >
  <def:WhereClauseRef WhereClauseOID="WC.WC.OETESTCD.CFSOTHOS.OEGRPID.CFSCS"/>

</ItemRef>
<ItemRef ItemOID="IT.OE.OEORRES.CFSTOTOD.CFSRES"
  OrderNumber="245"
  Mandatory="NA"
  >
  <def:WhereClauseRef WhereClauseOID="WC.WC.OETESTCD.CFSTOTOD.OEGRPID.CFSRES"/>

</ItemRef>
<ItemRef ItemOID="IT.OE.OEORRES.CFSTOTOS.CFSRES"
  OrderNumber="246"
  Mandatory="NA"
  >
  <def:WhereClauseRef WhereClauseOID="WC.WC.OETESTCD.CFSTOTOS.OEGRPID.CFSRES"/>

</ItemRef>
<ItemRef ItemOID="IT.OE.OEORRES.CFSTOTOU.CFSRES"
  OrderNumber="247"
  Mandatory="NA"
  >
  <def:WhereClauseRef WhereClauseOID="WC.WC.OETESTCD.CFSTOTOU.OEGRPID.CFSRES"/>

</ItemRef>
<ItemRef ItemOID="IT.OE.OEORRES.TBUTOD.TBUT"
  OrderNumber="248"
  Mandatory="NA"
  >
  <def:WhereClauseRef WhereClauseOID="WC.WC.OETESTCD.TBUTWOOD.OEGRPID.TBUT"/>

</ItemRef>
<ItemRef ItemOID="IT.OE.OEORRES.TBUTOS.TBUT"
  OrderNumber="249"
  Mandatory="NA"
  >
  <def:WhereClauseRef WhereClauseOID="WC.WC.OETESTCD.TBUTWOOS.OEGRPID.TBUT"/>

</ItemRef>
<ItemRef ItemOID="IT.OE.OEORRES.TBUTOU.TBUT"
  OrderNumber="250"
  Mandatory="NA"
  >
  <def:WhereClauseRef WhereClauseOID="WC.WC.OETESTCD.TBUTWOOU.OEGRPID.TBUT"/>

</ItemRef>
<ItemRef ItemOID="IT.OE.OEORRES.IOPOD.IOP"
  OrderNumber="251"
  Mandatory="NA"
  >
  <def:WhereClauseRef WhereClauseOID="WC.WC.OETESTCD.IOPOD.OEGRPID.IOP"/>

</ItemRef>
<ItemRef ItemOID="IT.OE.OEORRES.IOPOS.IOP"
  OrderNumber="252"
  Mandatory="NA"
  >
  <def:WhereClauseRef WhereClauseOID="WC.WC.OETESTCD.IOPOS.OEGRPID.IOP"/>

</ItemRef>
<ItemRef ItemOID="IT.OE.OEORRES.IOPOU.IOP"
  OrderNumber="252"
  Mandatory="NA"
  >
  <def:WhereClauseRef WhereClauseOID="WC.WC.OETESTCD.IOPOU.OEGRPID.IOP"/>

</ItemRef>
<ItemRef ItemOID="IT.OE.OEORRES.VACA2NOD.VACA2"
  OrderNumber="253"
  Mandatory="NA"
  >
  <def:WhereClauseRef WhereClauseOID="WC.WC.OE.OETESTCD.VACA2NOD.OEGRPID.VACA2"/>

</ItemRef>
<ItemRef ItemOID="IT.OE.OEORRES.VACA2NOS.VACA2"
  OrderNumber="254"
  Mandatory="NA"
  >
  <def:WhereClauseRef WhereClauseOID="WC.WC.OE.OETESTCD.VACA2NOS.OEGRPID.VACA2"/>

</ItemRef>
<ItemRef ItemOID="IT.OE.OEORRES.VACA2NOU.VACA2"
  OrderNumber="255"
  Mandatory="NA"
  >
  <def:WhereClauseRef WhereClauseOID="WC.WC.OE.OETESTCD.VACA2NOU.OEGRPID.VACA2"/>

</ItemRef>
<ItemRef ItemOID="IT.OE.OEORRES.VACA2DOD.VACA2"
  OrderNumber="256"
  Mandatory="NA"
  >
  <def:WhereClauseRef WhereClauseOID="WC.WC.OE.OETESTCD.VACA2DOD.OEGRPID.VACA2"/>

</ItemRef>
<ItemRef ItemOID="IT.OE.OEORRES.VACA2DOS.VACA2"
  OrderNumber="257"
  Mandatory="NA"
  >
  <def:WhereClauseRef WhereClauseOID="WC.WC.OE.OETESTCD.VACA2DOS.OEGRPID.VACA2"/>

</ItemRef>
<ItemRef ItemOID="IT.OE.OEORRES.VACA2DOU.VACA2"
  OrderNumber="258"
  Mandatory="NA"
  >
  <def:WhereClauseRef WhereClauseOID="WC.WC.OE.OETESTCD.VACA2DOU.OEGRPID.VACA2"/>

</ItemRef>
<ItemRef ItemOID="IT.OE.OEORRES.VACA2MOD.VACA2"
  OrderNumber="259"
  Mandatory="NA"
  >
  <def:WhereClauseRef WhereClauseOID="WC.WC.OE.OETESTCD.VACA2MOD.OEGRPID.VACA2"/>

</ItemRef>
<ItemRef ItemOID="IT.OE.OEORRES.VACA2MOS.VACA2"
  OrderNumber="260"
  Mandatory="NA"
  >
  <def:WhereClauseRef WhereClauseOID="WC.WC.OE.OETESTCD.VACA2MOS.OEGRPID.VACA2"/>

</ItemRef>
<ItemRef ItemOID="IT.OE.OEORRES.VACA2MOU.VACA2"
  OrderNumber="261"
  Mandatory="NA"
  >
  <def:WhereClauseRef WhereClauseOID="WC.WC.OE.OETESTCD.VACA2MOU.OEGRPID.VACA2"/>

</ItemRef>
<ItemRef ItemOID="IT.OE.OEORRES.UFVHOD.UNDFUND"
  OrderNumber="262"
  Mandatory="NA"
  >
  <def:WhereClauseRef WhereClauseOID="WC.WC.OE.OETESTCD.UFVHOD.OEGRPID.UNDFUND"/>

</ItemRef>
<ItemRef ItemOID="IT.OE.OEORRES.UFVHOS.UNDFUND"
  OrderNumber="263"
  Mandatory="NA"
  >
  <def:WhereClauseRef WhereClauseOID="WC.WC.OE.OETESTCD.UFVHOS.OEGRPID.UNDFUND"/>

</ItemRef>
<ItemRef ItemOID="IT.OE.OEORRES.UFVHOU.UNDFUND"
  OrderNumber="264"
  Mandatory="NA"
  >
  <def:WhereClauseRef WhereClauseOID="WC.WC.OE.OETESTCD.UFVHOU.OEGRPID.UNDFUND"/>

</ItemRef>
<ItemRef ItemOID="IT.OE.OEORRES.UFVHODA.UNDFUNDA"
  OrderNumber="265"
  Mandatory="NA"
  >
  <def:WhereClauseRef WhereClauseOID="WC.WC.OE.OETESTCD.UFVHODA.OEGRPID.UNDFUNDA"/>

</ItemRef>
<ItemRef ItemOID="IT.OE.OEORRES.UFVHOSA.UNDFUNDA"
  OrderNumber="266"
  Mandatory="NA"
  >
  <def:WhereClauseRef WhereClauseOID="WC.WC.OE.OETESTCD.UFVHOSA.OEGRPID.UNDFUNDA"/>

</ItemRef>
<ItemRef ItemOID="IT.OE.OEORRES.UFONOD.UNDFUND"
  OrderNumber="267"
  Mandatory="NA"
  >
  <def:WhereClauseRef WhereClauseOID="WC.WC.OE.OETESTCD.UFONOD.OEGRPID.UNDFUND"/>

</ItemRef>
<ItemRef ItemOID="IT.OE.OEORRES.UFONOS.UNDFUND"
  OrderNumber="268"
  Mandatory="NA"
  >
  <def:WhereClauseRef WhereClauseOID="WC.WC.OE.OETESTCD.UFONOS.OEGRPID.UNDFUND"/>

</ItemRef>
<ItemRef ItemOID="IT.OE.OEORRES.UFONOU.UNDFUND"
  OrderNumber="269"
  Mandatory="NA"
  >
  <def:WhereClauseRef WhereClauseOID="WC.WC.OE.OETESTCD.UFONOU.OEGRPID.UNDFUND"/>

</ItemRef>
<ItemRef ItemOID="IT.OE.OEORRES.UFONODA.UNDFUNDA"
  OrderNumber="270"
  Mandatory="NA"
  >
  <def:WhereClauseRef WhereClauseOID="WC.WC.OE.OETESTCD.UFONODA.OEGRPID.UNDFUNDA"/>

</ItemRef>
<ItemRef ItemOID="IT.OE.OEORRES.UFONOSA.UNDFUNDA"
  OrderNumber="271"
  Mandatory="NA"
  >
  <def:WhereClauseRef WhereClauseOID="WC.WC.OE.OETESTCD.UFONOSA.OEGRPID.UNDFUNDA"/>

</ItemRef>
<ItemRef ItemOID="IT.OE.OEORRES.UFCDRVOD.UNDFUND"
  OrderNumber="272"
  Mandatory="NA"
  >
  <def:WhereClauseRef WhereClauseOID="WC.WC.OE.OETESTCD.UFCDOD.OEGRPID.UNDFUND"/>

</ItemRef>
<ItemRef ItemOID="IT.OE.OEORRES.UFCDRVOS.UNDFUND"
  OrderNumber="273"
  Mandatory="NA"
  >
  <def:WhereClauseRef WhereClauseOID="WC.WC.OE.OETESTCD.UFCDOS.OEGRPID.UNDFUND"/>

</ItemRef>
<ItemRef ItemOID="IT.OE.OEORRES.UFCDRVOU.UNDFUND"
  OrderNumber="274"
  Mandatory="NA"
  >
  <def:WhereClauseRef WhereClauseOID="WC.WC.OE.OETESTCD.UFCDOU.OEGRPID.UNDFUND"/>

</ItemRef>
<ItemRef ItemOID="IT.OE.OEORRES.UFMAOD.UNDFUND"
  OrderNumber="275"
  Mandatory="NA"
  >
  <def:WhereClauseRef WhereClauseOID="WC.WC.OE.OETESTCD.UFMAOD.OEGRPID.UNDFUND"/>

</ItemRef>
<ItemRef ItemOID="IT.OE.OEORRES.UFMAOS.UNDFUND"
  OrderNumber="276"
  Mandatory="NA"
  >
  <def:WhereClauseRef WhereClauseOID="WC.WC.OE.OETESTCD.UFMAOS.OEGRPID.UNDFUND"/>

</ItemRef>
<ItemRef ItemOID="IT.OE.OEORRES.UFMAOU.UNDFUND"
  OrderNumber="277"
  Mandatory="NA"
  >
  <def:WhereClauseRef WhereClauseOID="WC.WC.OE.OETESTCD.UFMAOU.OEGRPID.UNDFUND"/>

</ItemRef>
<ItemRef ItemOID="IT.OE.OEORRES.UFMAODA.UNDFUNDA"
  OrderNumber="278"
  Mandatory="NA"
  >
  <def:WhereClauseRef WhereClauseOID="WC.WC.OE.OETESTCD.UFMAODA.OEGRPID.UNDFUNDA"/>

</ItemRef>
<ItemRef ItemOID="IT.OE.OEORRES.UFMAOSA.UNDFUNDA"
  OrderNumber="279"
  Mandatory="NA"
  >
  <def:WhereClauseRef WhereClauseOID="WC.WC.OE.OETESTCD.UFMAOSA.OEGRPID.UNDFUNDA"/>

</ItemRef>
 </def:ValueListDef>

<def:ValueListDef OID="VL.QS.QSORRES">
<ItemRef ItemOID="IT.QS.QSORRES.SANDFDOS"
  OrderNumber="1"
  Mandatory="NA"
  >
  <def:WhereClauseRef WhereClauseOID="WC.QS.QSORRES.SANDFDOS"/>

</ItemRef>
<ItemRef ItemOID="IT.QS.QSORRES.SANDFDOD"
  OrderNumber="2"
  Mandatory="NA"
  >
  <def:WhereClauseRef WhereClauseOID="WC.QS.QSORRES.SANDFDOD"/>

</ItemRef>
<ItemRef ItemOID="IT.QS.QSORRES.SANDFDOU"
  OrderNumber="3"
  Mandatory="NA"
  >
  <def:WhereClauseRef WhereClauseOID="WC.QS.QSORRES.SANDFDOU"/>

</ItemRef>
<ItemRef ItemOID="IT.QS.QSORRES.SANDSDOS"
  OrderNumber="4"
  Mandatory="NA"
  >
  <def:WhereClauseRef WhereClauseOID="WC.QS.QSORRES.SANDSDOS"/>

</ItemRef>
<ItemRef ItemOID="IT.QS.QSORRES.SANDSDOD"
  OrderNumber="5"
  Mandatory="NA"
  >
  <def:WhereClauseRef WhereClauseOID="WC.QS.QSORRES.SANDSDOD"/>

</ItemRef>
<ItemRef ItemOID="IT.QS.QSORRES.SANDSDOU"
  OrderNumber="6"
  Mandatory="NA"
  >
  <def:WhereClauseRef WhereClauseOID="WC.QS.QSORRES.SANDSDOU"/>

</ItemRef>
<ItemRef ItemOID="IT.QS.QSORRES.SANDFNOS"
  OrderNumber="7"
  Mandatory="NA"
  >
  <def:WhereClauseRef WhereClauseOID="WC.QS.QSORRES.SANDFNOS"/>

</ItemRef>
<ItemRef ItemOID="IT.QS.QSORRES.SANDFNOD"
  OrderNumber="8"
  Mandatory="NA"
  >
  <def:WhereClauseRef WhereClauseOID="WC.QS.QSORRES.SANDFNOD"/>

</ItemRef>
<ItemRef ItemOID="IT.QS.QSORRES.SANDFNOU"
  OrderNumber="9"
  Mandatory="NA"
  >
  <def:WhereClauseRef WhereClauseOID="WC.QS.QSORRES.SANDFNOU"/>

</ItemRef>
<ItemRef ItemOID="IT.QS.QSORRES.SANDSNOS"
  OrderNumber="10"
  Mandatory="NA"
  >
  <def:WhereClauseRef WhereClauseOID="WC.QS.QSORRES.SANDSNOS"/>

</ItemRef>
<ItemRef ItemOID="IT.QS.QSORRES.SANDSNOD"
  OrderNumber="11"
  Mandatory="NA"
  >
  <def:WhereClauseRef WhereClauseOID="WC.QS.QSORRES.SANDSNOD"/>

</ItemRef>
<ItemRef ItemOID="IT.QS.QSORRES.SANDSNOU"
  OrderNumber="12"
  Mandatory="NA"
  >
  <def:WhereClauseRef WhereClauseOID="WC.QS.QSORRES.SANDSNOU"/>

</ItemRef>
<ItemRef ItemOID="IT.QS.QSORRES.GOSDODOS"
  OrderNumber="13"
  Mandatory="NA"
  >
  <def:WhereClauseRef WhereClauseOID="WC.QS.QSORRES.GOSDODOS"/>

</ItemRef>
<ItemRef ItemOID="IT.QS.QSORRES.GOSDODOD"
  OrderNumber="14"
  Mandatory="NA"
  >
  <def:WhereClauseRef WhereClauseOID="WC.QS.QSORRES.GOSDODOD"/>

</ItemRef>
<ItemRef ItemOID="IT.QS.QSORRES.GOSDODOU"
  OrderNumber="15"
  Mandatory="NA"
  >
  <def:WhereClauseRef WhereClauseOID="WC.QS.QSORRES.GOSDODOU"/>

</ItemRef>
<ItemRef ItemOID="IT.QS.QSORRES.GOSDDROS"
  OrderNumber="16"
  Mandatory="NA"
  >
  <def:WhereClauseRef WhereClauseOID="WC.QS.QSORRES.GOSDDROS"/>

</ItemRef>
<ItemRef ItemOID="IT.QS.QSORRES.GOSDDROD"
  OrderNumber="17"
  Mandatory="NA"
  >
  <def:WhereClauseRef WhereClauseOID="WC.QS.QSORRES.GOSDDROD"/>

</ItemRef>
<ItemRef ItemOID="IT.QS.QSORRES.GOSDDROU"
  OrderNumber="18"
  Mandatory="NA"
  >
  <def:WhereClauseRef WhereClauseOID="WC.QS.QSORRES.GOSDDROU"/>

</ItemRef>
<ItemRef ItemOID="IT.QS.QSORRES.GOSDEROS"
  OrderNumber="19"
  Mandatory="NA"
  >
  <def:WhereClauseRef WhereClauseOID="WC.QS.QSORRES.GOSDEROS"/>

</ItemRef>
<ItemRef ItemOID="IT.QS.QSORRES.GOSDEROD"
  OrderNumber="20"
  Mandatory="NA"
  >
  <def:WhereClauseRef WhereClauseOID="WC.QS.QSORRES.GOSDEROD"/>

</ItemRef>
<ItemRef ItemOID="IT.QS.QSORRES.GOSDEROU"
  OrderNumber="21"
  Mandatory="NA"
  >
  <def:WhereClauseRef WhereClauseOID="WC.QS.QSORRES.GOSDEROU"/>

</ItemRef>
<ItemRef ItemOID="IT.QS.QSORRES.GOSDSLOS"
  OrderNumber="22"
  Mandatory="NA"
  >
  <def:WhereClauseRef WhereClauseOID="WC.QS.QSORRES.GOSDSLOS"/>

</ItemRef>
<ItemRef ItemOID="IT.QS.QSORRES.GOSDSLOD"
  OrderNumber="23"
  Mandatory="NA"
  >
  <def:WhereClauseRef WhereClauseOID="WC.QS.QSORRES.GOSDSLOD"/>

</ItemRef>
<ItemRef ItemOID="IT.QS.QSORRES.GOSDSLOU"
  OrderNumber="24"
  Mandatory="NA"
  >
  <def:WhereClauseRef WhereClauseOID="WC.QS.QSORRES.GOSDSLOU"/>

</ItemRef>
<ItemRef ItemOID="IT.QS.QSORRES.GOSDBCOS"
  OrderNumber="25"
  Mandatory="NA"
  >
  <def:WhereClauseRef WhereClauseOID="WC.QS.QSORRES.GOSDBCOS"/>

</ItemRef>
<ItemRef ItemOID="IT.QS.QSORRES.GOSDBCOD"
  OrderNumber="26"
  Mandatory="NA"
  >
  <def:WhereClauseRef WhereClauseOID="WC.QS.QSORRES.GOSDBCOD"/>

</ItemRef>
<ItemRef ItemOID="IT.QS.QSORRES.GOSDBCOU"
  OrderNumber="27"
  Mandatory="NA"
  >
  <def:WhereClauseRef WhereClauseOID="WC.QS.QSORRES.GOSDBCOU"/>

</ItemRef>
<ItemRef ItemOID="IT.QS.QSORRES.GOSDBDOS"
  OrderNumber="28"
  Mandatory="NA"
  >
  <def:WhereClauseRef WhereClauseOID="WC.QS.QSORRES.GOSDBDOS"/>

</ItemRef>
<ItemRef ItemOID="IT.QS.QSORRES.GOSDBDOD"
  OrderNumber="29"
  Mandatory="NA"
  >
  <def:WhereClauseRef WhereClauseOID="WC.QS.QSORRES.GOSDBDOD"/>

</ItemRef>
<ItemRef ItemOID="IT.QS.QSORRES.GOSDBDOU"
  OrderNumber="30"
  Mandatory="NA"
  >
  <def:WhereClauseRef WhereClauseOID="WC.QS.QSORRES.GOSDBDOU"/>

</ItemRef>
<ItemRef ItemOID="IT.QS.QSORRES.GOSDSDIS"
  OrderNumber="31"
  Mandatory="NA"
  >
  <def:WhereClauseRef WhereClauseOID="WC.QS.QSORRES.GOSDSDIS"/>

</ItemRef>
<ItemRef ItemOID="IT.QS.QSORRES.SLWG01OD"
  OrderNumber="32"
  Mandatory="NA"
  >
  <def:WhereClauseRef WhereClauseOID="WC.QS.QSORRES.SLWG01OD"/>

</ItemRef>
<ItemRef ItemOID="IT.QS.QSORRES.SLWG01OS"
  OrderNumber="33"
  Mandatory="NA"
  >
  <def:WhereClauseRef WhereClauseOID="WC.QS.QSORRES.SLWG01OS"/>

</ItemRef>
<ItemRef ItemOID="IT.QS.QSORRES.SLWG01OU"
  OrderNumber="34"
  Mandatory="NA"
  >
  <def:WhereClauseRef WhereClauseOID="WC.QS.QSORRES.SLWG01OU"/>

</ItemRef>
<ItemRef ItemOID="IT.QS.QSORRES.SLWG02OD"
  OrderNumber="35"
  Mandatory="NA"
  >
  <def:WhereClauseRef WhereClauseOID="WC.QS.QSORRES.SLWG02OD"/>

</ItemRef>
<ItemRef ItemOID="IT.QS.QSORRES.SLWG02OS"
  OrderNumber="36"
  Mandatory="NA"
  >
  <def:WhereClauseRef WhereClauseOID="WC.QS.QSORRES.SLWG02OS"/>

</ItemRef>
<ItemRef ItemOID="IT.QS.QSORRES.SLWG02OU"
  OrderNumber="37"
  Mandatory="NA"
  >
  <def:WhereClauseRef WhereClauseOID="WC.QS.QSORRES.SLWG02OU"/>

</ItemRef>
<ItemRef ItemOID="IT.QS.QSORRES.SLWG03OD"
  OrderNumber="38"
  Mandatory="NA"
  >
  <def:WhereClauseRef WhereClauseOID="WC.QS.QSORRES.SLWG03OD"/>

</ItemRef>
<ItemRef ItemOID="IT.QS.QSORRES.SLWG03OS"
  OrderNumber="39"
  Mandatory="NA"
  >
  <def:WhereClauseRef WhereClauseOID="WC.QS.QSORRES.SLWG03OS"/>

</ItemRef>
<ItemRef ItemOID="IT.QS.QSORRES.SLWG03OU"
  OrderNumber="40"
  Mandatory="NA"
  >
  <def:WhereClauseRef WhereClauseOID="WC.QS.QSORRES.SLWG03OU"/>

</ItemRef>
<ItemRef ItemOID="IT.QS.QSORRES.SLWG04OD"
  OrderNumber="41"
  Mandatory="NA"
  >
  <def:WhereClauseRef WhereClauseOID="WC.QS.QSORRES.SLWG04OD"/>

</ItemRef>
<ItemRef ItemOID="IT.QS.QSORRES.SLWG04OS"
  OrderNumber="42"
  Mandatory="NA"
  >
  <def:WhereClauseRef WhereClauseOID="WC.QS.QSORRES.SLWG04OS"/>

</ItemRef>
<ItemRef ItemOID="IT.QS.QSORRES.SLWG04OU"
  OrderNumber="43"
  Mandatory="NA"
  >
  <def:WhereClauseRef WhereClauseOID="WC.QS.QSORRES.SLWG04OU"/>

</ItemRef>
<ItemRef ItemOID="IT.QS.QSORRES.SANDGDOS"
  OrderNumber="44"
  Mandatory="NA"
  >
  <def:WhereClauseRef WhereClauseOID="WC.QS.QSORRES.SANDGDOS"/>

</ItemRef>
<ItemRef ItemOID="IT.QS.QSORRES.SANDGDOD"
  OrderNumber="45"
  Mandatory="NA"
  >
  <def:WhereClauseRef WhereClauseOID="WC.QS.QSORRES.SANDGDOD"/>

</ItemRef>
<ItemRef ItemOID="IT.QS.QSORRES.SANDGDOU"
  OrderNumber="46"
  Mandatory="NA"
  >
  <def:WhereClauseRef WhereClauseOID="WC.QS.QSORRES.SANDGDOU"/>

</ItemRef>
<ItemRef ItemOID="IT.QS.QSORRES.SANDGNOS"
  OrderNumber="47"
  Mandatory="NA"
  >
  <def:WhereClauseRef WhereClauseOID="WC.QS.QSORRES.SANDGNOS"/>

</ItemRef>
<ItemRef ItemOID="IT.QS.QSORRES.SANDGNOD"
  OrderNumber="48"
  Mandatory="NA"
  >
  <def:WhereClauseRef WhereClauseOID="WC.QS.QSORRES.SANDGNOD"/>

</ItemRef>
<ItemRef ItemOID="IT.QS.QSORRES.SANDGNOU"
  OrderNumber="49"
  Mandatory="NA"
  >
  <def:WhereClauseRef WhereClauseOID="WC.QS.QSORRES.SANDGNOU"/>

</ItemRef>
 </def:ValueListDef>

<def:ValueListDef OID="VL.SUPPAE.QVAL">
<ItemRef ItemOID="IT.SUPPAE.QVAL.AECOM"
  OrderNumber="1"
  Mandatory="NA"
  >
  <def:WhereClauseRef WhereClauseOID="WC.SUPPAE.QVAL.AECOM"/>

</ItemRef>
 </def:ValueListDef>

<def:ValueListDef OID="VL.SUPPCM.QVAL">
<ItemRef ItemOID="IT.SUPPCM.QVAL.V1CPYCON_Oth"
  OrderNumber="1"
  Mandatory="NA"
  >
  <def:WhereClauseRef WhereClauseOID="WC.SUPPCM.QVAL.V1CPYCON_Oth"/>

</ItemRef>
<ItemRef ItemOID="IT.SUPPCM.QVAL.V1CPYCONYN_Oth"
  OrderNumber="2"
  Mandatory="NA"
  >
  <def:WhereClauseRef WhereClauseOID="WC.SUPPCM.QVAL.V1CPYCONYN_Oth"/>

</ItemRef>
<ItemRef ItemOID="IT.SUPPCM.QVAL.V1NOMH60YN"
  OrderNumber="2"
  Mandatory="NA"
  >
  <def:WhereClauseRef WhereClauseOID="WC.SUPPCM.QVAL.V1NOMH60YN"/>

</ItemRef>
<ItemRef ItemOID="IT.SUPPCM.QVAL.V1NOMHBLYN"
  OrderNumber="2"
  Mandatory="NA"
  >
  <def:WhereClauseRef WhereClauseOID="WC.SUPPCM.QVAL.V1NOMHBLYN"/>

</ItemRef>
<ItemRef ItemOID="IT.SUPPCM.QVAL.V1TDYN"
  OrderNumber="3"
  Mandatory="NA"
  >
  <def:WhereClauseRef WhereClauseOID="WC.SUPPCM.QVAL.V1TDYN"/>

</ItemRef>
<ItemRef ItemOID="IT.SUPPCM.QVAL.V1TDPPYN"
  OrderNumber="4"
  Mandatory="NA"
  >
  <def:WhereClauseRef WhereClauseOID="WC.SUPPCM.QVAL.V1TDPPYN"/>

</ItemRef>
<ItemRef ItemOID="IT.SUPPCM.QVAL.V1TDPPDTC"
  OrderNumber="5"
  Mandatory="NA"
  >
  <def:WhereClauseRef WhereClauseOID="WC.SUPPCM.QVAL.V1TDPPDTC"/>

</ItemRef>
<ItemRef ItemOID="IT.SUPPCM.QVAL.V1TDPP1DTC"
  OrderNumber="6"
  Mandatory="NA"
  >
  <def:WhereClauseRef WhereClauseOID="WC.SUPPCM.QVAL.V1TDPP1DTC"/>

</ItemRef>
<ItemRef ItemOID="IT.SUPPCM.QVAL.V1TDPP2DTC"
  OrderNumber="7"
  Mandatory="NA"
  >
  <def:WhereClauseRef WhereClauseOID="WC.SUPPCM.QVAL.V1TDPP2DTC"/>

</ItemRef>
<ItemRef ItemOID="IT.SUPPCM.QVAL.V1TDPP3DTC"
  OrderNumber="8"
  Mandatory="NA"
  >
  <def:WhereClauseRef WhereClauseOID="WC.SUPPCM.QVAL.V1TDPP3DTC"/>

</ItemRef>
<ItemRef ItemOID="IT.SUPPCM.QVAL.V1TDGYM"
  OrderNumber="9"
  Mandatory="NA"
  >
  <def:WhereClauseRef WhereClauseOID="WC.SUPPCM.QVAL.V1TDGYM"/>

</ItemRef>
<ItemRef ItemOID="IT.SUPPCM.QVAL.V1TDGOD"
  OrderNumber="10"
  Mandatory="NA"
  >
  <def:WhereClauseRef WhereClauseOID="WC.SUPPCM.QVAL.V1TDGOD"/>

</ItemRef>
<ItemRef ItemOID="IT.SUPPCM.QVAL.V1TDGOS"
  OrderNumber="11"
  Mandatory="NA"
  >
  <def:WhereClauseRef WhereClauseOID="WC.SUPPCM.QVAL.V1TDGOS"/>

</ItemRef>
 </def:ValueListDef>

<def:ValueListDef OID="VL.SUPPDM.QVAL">
<ItemRef ItemOID="IT.SUPPDM.QVAL.SCREENO"
  OrderNumber="1"
  Mandatory="NA"
  MethodOID="MT.SUPPDM.SCREENO">
  <def:WhereClauseRef WhereClauseOID="WC.SUPPDM.QVAL.SCREENO"/>

</ItemRef>
<ItemRef ItemOID="IT.SUPPDM.QVAL.RANDNO"
  OrderNumber="2"
  Mandatory="No"
  MethodOID="MT.SUPPDM.RANDNO">
  <def:WhereClauseRef WhereClauseOID="WC.SUPPDM.QVAL.RANDNO"/>

</ItemRef>
<ItemRef ItemOID="IT.SUPPDM.QVAL.RACEOTH"
  OrderNumber="3"
  Mandatory="No"
  MethodOID="MT.SUPPDM.RACEOTH">
  <def:WhereClauseRef WhereClauseOID="WC.SUPPDM.QVAL.RACEOTH"/>

</ItemRef>
<ItemRef ItemOID="IT.SUPPDM.QVAL.ONNOT"
  OrderNumber="4"
  Mandatory="NA"
  >
  <def:WhereClauseRef WhereClauseOID="WC.SUPPDM.QVAL.ONNOT"/>

</ItemRef>
<ItemRef ItemOID="IT.SUPPDM.QVAL.ONNOTDTC"
  OrderNumber="5"
  Mandatory="NA"
  >
  <def:WhereClauseRef WhereClauseOID="WC.SUPPDM.QVAL.ONNOTDTC"/>

</ItemRef>
<ItemRef ItemOID="IT.SUPPDM.QVAL.OPNOT"
  OrderNumber="6"
  Mandatory="NA"
  >
  <def:WhereClauseRef WhereClauseOID="WC.SUPPDM.QVAL.OPNOT"/>

</ItemRef>
<ItemRef ItemOID="IT.SUPPDM.QVAL.OPNOTDTC"
  OrderNumber="7"
  Mandatory="NA"
  >
  <def:WhereClauseRef WhereClauseOID="WC.SUPPDM.QVAL.OPNOTDTC"/>

</ItemRef>
 </def:ValueListDef>

<def:ValueListDef OID="VL.SUPPEX.QVAL">
<ItemRef ItemOID="IT.SUPPEX.QVAL.EXCOM"
  OrderNumber="1"
  Mandatory="NA"
  >
  <def:WhereClauseRef WhereClauseOID="WC.SUPPEX.QVAL.EXCOM"/>

</ItemRef>
<ItemRef ItemOID="IT.SUPPEX.QVAL.EXDY"
  OrderNumber="2"
  Mandatory="NA"
  >
  <def:WhereClauseRef WhereClauseOID="WC.SUPPEX.QVAL.EXDY"/>

</ItemRef>
 </def:ValueListDef>

<def:ValueListDef OID="VL.SUPPIE.QVAL">
<ItemRef ItemOID="IT.SUPPIE.QVAL.REASON"
  OrderNumber="1"
  Mandatory="NA"
  >
  <def:WhereClauseRef WhereClauseOID="WC.SUPPIE.QVAL.REASON"/>

</ItemRef>
<ItemRef ItemOID="IT.SUPPIE.QVAL.IEOC1_chk"
  OrderNumber="2"
  Mandatory="NA"
  >
  <def:WhereClauseRef WhereClauseOID="WC.SUPPIE.QVAL.IEOC1_chk"/>

</ItemRef>
<ItemRef ItemOID="IT.SUPPIE.QVAL.IEOC1_imp"
  OrderNumber="3"
  Mandatory="NA"
  >
  <def:WhereClauseRef WhereClauseOID="WC.SUPPIE.QVAL.IEOC1_imp"/>

</ItemRef>
<ItemRef ItemOID="IT.SUPPIE.QVAL.IEOC2_chk"
  OrderNumber="4"
  Mandatory="NA"
  >
  <def:WhereClauseRef WhereClauseOID="WC.SUPPIE.QVAL.IEOC2_chk"/>

</ItemRef>
<ItemRef ItemOID="IT.SUPPIE.QVAL.IEOC2_imp"
  OrderNumber="5"
  Mandatory="NA"
  >
  <def:WhereClauseRef WhereClauseOID="WC.SUPPIE.QVAL.IEOC2_imp"/>

</ItemRef>
 </def:ValueListDef>

<def:ValueListDef OID="VL.SUPPMH.QVAL">
<ItemRef ItemOID="IT.SUPPMH.QVAL.V1CVCON"
  OrderNumber="1"
  Mandatory="NA"
  >
  <def:WhereClauseRef WhereClauseOID="WC.SUPPMH.QVAL.V1CVCON"/>

</ItemRef>
<ItemRef ItemOID="IT.SUPPMH.QVAL.V1CVSUS"
  OrderNumber="2"
  Mandatory="NA"
  >
  <def:WhereClauseRef WhereClauseOID="WC.SUPPMH.QVAL.V1CVSUS"/>

</ItemRef>
<ItemRef ItemOID="IT.SUPPMH.QVAL.V1CVLOC"
  OrderNumber="3"
  Mandatory="NA"
  >
  <def:WhereClauseRef WhereClauseOID="WC.SUPPMH.QVAL.V1CVLOC"/>

</ItemRef>
<ItemRef ItemOID="IT.SUPPMH.QVAL.V1CVRES"
  OrderNumber="4"
  Mandatory="NA"
  >
  <def:WhereClauseRef WhereClauseOID="WC.SUPPMH.QVAL.V1CVRES"/>

</ItemRef>
<ItemRef ItemOID="IT.SUPPMH.QVAL.V1CVFEV"
  OrderNumber="5"
  Mandatory="NA"
  >
  <def:WhereClauseRef WhereClauseOID="WC.SUPPMH.QVAL.V1CVFEV"/>

</ItemRef>
<ItemRef ItemOID="IT.SUPPMH.QVAL.V1CVCOU"
  OrderNumber="6"
  Mandatory="NA"
  >
  <def:WhereClauseRef WhereClauseOID="WC.SUPPMH.QVAL.V1CVCOU"/>

</ItemRef>
<ItemRef ItemOID="IT.SUPPMH.QVAL.V1CVBRE"
  OrderNumber="7"
  Mandatory="NA"
  >
  <def:WhereClauseRef WhereClauseOID="WC.SUPPMH.QVAL.V1CVBRE"/>

</ItemRef>
<ItemRef ItemOID="IT.SUPPMH.QVAL.V1CVCHP"
  OrderNumber="8"
  Mandatory="NA"
  >
  <def:WhereClauseRef WhereClauseOID="WC.SUPPMH.QVAL.V1CVCHP"/>

</ItemRef>
<ItemRef ItemOID="IT.SUPPMH.QVAL.V1CVSTH"
  OrderNumber="9"
  Mandatory="NA"
  >
  <def:WhereClauseRef WhereClauseOID="WC.SUPPMH.QVAL.V1CVSTH"/>

</ItemRef>
<ItemRef ItemOID="IT.SUPPMH.QVAL.V1CVNVG"
  OrderNumber="10"
  Mandatory="NA"
  >
  <def:WhereClauseRef WhereClauseOID="WC.SUPPMH.QVAL.V1CVNVG"/>

</ItemRef>
<ItemRef ItemOID="IT.SUPPMH.QVAL.V1CVTST"
  OrderNumber="11"
  Mandatory="NA"
  >
  <def:WhereClauseRef WhereClauseOID="WC.SUPPMH.QVAL.V1CVTST"/>

</ItemRef>
<ItemRef ItemOID="IT.SUPPMH.QVAL.V1CVMAC"
  OrderNumber="12"
  Mandatory="NA"
  >
  <def:WhereClauseRef WhereClauseOID="WC.SUPPMH.QVAL.V1CVMAC"/>

</ItemRef>
<ItemRef ItemOID="IT.SUPPMH.QVAL.V1CVFAT"
  OrderNumber="13"
  Mandatory="NA"
  >
  <def:WhereClauseRef WhereClauseOID="WC.SUPPMH.QVAL.V1CVFAT"/>

</ItemRef>
<ItemRef ItemOID="IT.SUPPMH.QVAL.V1CVANY"
  OrderNumber="14"
  Mandatory="NA"
  >
  <def:WhereClauseRef WhereClauseOID="WC.SUPPMH.QVAL.V1CVANY"/>

</ItemRef>
<ItemRef ItemOID="IT.SUPPMH.QVAL.V1CVANY_Oth"
  OrderNumber="15"
  Mandatory="NA"
  >
  <def:WhereClauseRef WhereClauseOID="WC.SUPPMH.QVAL.V1CVANY_Oth"/>

</ItemRef>
<ItemRef ItemOID="IT.SUPPMH.QVAL.OHCOM"
  OrderNumber="16"
  Mandatory="NA"
  >
  <def:WhereClauseRef WhereClauseOID="WC.SUPPMH.QVAL.OHCOM"/>

</ItemRef>
<ItemRef ItemOID="IT.SUPPMH.QVAL.OPCOM"
  OrderNumber="17"
  Mandatory="NA"
  >
  <def:WhereClauseRef WhereClauseOID="WC.SUPPMH.QVAL.OPCOM"/>

</ItemRef>
<ItemRef ItemOID="IT.SUPPMH.QVAL.MHCOM"
  OrderNumber="18"
  Mandatory="NA"
  >
  <def:WhereClauseRef WhereClauseOID="WC.SUPPMH.QVAL.MHCOM"/>

</ItemRef>
<ItemRef ItemOID="IT.SUPPMH.QVAL.PRYN"
  OrderNumber="19"
  Mandatory="NA"
  >
  <def:WhereClauseRef WhereClauseOID="WC.SUPPMH.QVAL.PRYN"/>

</ItemRef>
<ItemRef ItemOID="IT.SUPPMH.QVAL.PRCOM"
  OrderNumber="20"
  Mandatory="NA"
  >
  <def:WhereClauseRef WhereClauseOID="WC.SUPPMH.QVAL.PRCOM"/>

</ItemRef>
<ItemRef ItemOID="IT.SUPPMH.QVAL.V1CPHY"
  OrderNumber="21"
  Mandatory="NA"
  >
  <def:WhereClauseRef WhereClauseOID="WC.SUPPMH.QVAL.V1CPHY"/>

</ItemRef>
<ItemRef ItemOID="IT.SUPPMH.QVAL.V1CPOO"
  OrderNumber="22"
  Mandatory="NA"
  >
  <def:WhereClauseRef WhereClauseOID="WC.SUPPMH.QVAL.V1CPOO"/>

</ItemRef>
 </def:ValueListDef>

<def:ValueListDef OID="VL.SUPPOE.QVAL">
<ItemRef ItemOID="IT.SUPPOE.QVAL.V1A1YN"
  OrderNumber="9"
  Mandatory="NA"
  >
  <def:WhereClauseRef WhereClauseOID="WC.SUPPOE.QVAL.V1A1YN"/>

</ItemRef>
<ItemRef ItemOID="IT.SUPPOE.QVAL.V1A1N"
  OrderNumber="10"
  Mandatory="NA"
  >
  <def:WhereClauseRef WhereClauseOID="WC.SUPPOE.QVAL.V1A1N"/>

</ItemRef>
<ItemRef ItemOID="IT.SUPPOE.QVAL.V1W_FPYN"
  OrderNumber="11"
  Mandatory="NA"
  >
  <def:WhereClauseRef WhereClauseOID="WC.SUPPOE.QVAL.V1W_FPYN"/>

</ItemRef>
<ItemRef ItemOID="IT.SUPPOE.QVAL.V1W_TSYNOD"
  OrderNumber="12"
  Mandatory="NA"
  >
  <def:WhereClauseRef WhereClauseOID="WC.SUPPOE.QVAL.V1W_TSYNOD"/>

</ItemRef>
<ItemRef ItemOID="IT.SUPPOE.QVAL.V1W_TSYNOS"
  OrderNumber="13"
  Mandatory="NA"
  >
  <def:WhereClauseRef WhereClauseOID="WC.SUPPOE.QVAL.V1W_TSYNOS"/>

</ItemRef>
<ItemRef ItemOID="IT.SUPPOE.QVAL.V1WKYN"
  OrderNumber="14"
  Mandatory="NA"
  >
  <def:WhereClauseRef WhereClauseOID="WC.SUPPOE.QVAL.V1WKYN"/>

</ItemRef>
<ItemRef ItemOID="IT.SUPPOE.QVAL.V1WKN"
  OrderNumber="15"
  Mandatory="NA"
  >
  <def:WhereClauseRef WhereClauseOID="WC.SUPPOE.QVAL.V1WKN"/>

</ItemRef>
<ItemRef ItemOID="IT.SUPPOE.QVAL.V1WK_OD"
  OrderNumber="16"
  Mandatory="NA"
  >
  <def:WhereClauseRef WhereClauseOID="WC.SUPPOE.QVAL.V1WK_OD"/>

</ItemRef>
<ItemRef ItemOID="IT.SUPPOE.QVAL.V1WK_OS"
  OrderNumber="17"
  Mandatory="NA"
  >
  <def:WhereClauseRef WhereClauseOID="WC.SUPPOE.QVAL.V1WK_OS"/>

</ItemRef>
<ItemRef ItemOID="IT.SUPPOE.QVAL.V1WEGSYN"
  OrderNumber="18"
  Mandatory="NA"
  >
  <def:WhereClauseRef WhereClauseOID="WC.SUPPOE.QVAL.V1WEGSYN"/>

</ItemRef>
<ItemRef ItemOID="IT.SUPPOE.QVAL.V1WEGSN"
  OrderNumber="19"
  Mandatory="NA"
  >
  <def:WhereClauseRef WhereClauseOID="WC.SUPPOE.QVAL.V1WEGSN"/>

</ItemRef>
<ItemRef ItemOID="IT.SUPPOE.QVAL.V1WO_FPYN"
  OrderNumber="20"
  Mandatory="NA"
  >
  <def:WhereClauseRef WhereClauseOID="WC.SUPPOE.QVAL.V1WO_FPYN"/>

</ItemRef>
<ItemRef ItemOID="IT.SUPPOE.QVAL.V1WO_TSYNOD"
  OrderNumber="21"
  Mandatory="NA"
  >
  <def:WhereClauseRef WhereClauseOID="WC.SUPPOE.QVAL.V1WO_TSYNOD"/>

</ItemRef>
<ItemRef ItemOID="IT.SUPPOE.QVAL.V1WO_TSYNOS"
  OrderNumber="22"
  Mandatory="NA"
  >
  <def:WhereClauseRef WhereClauseOID="WC.SUPPOE.QVAL.V1WO_TSYNOS"/>

</ItemRef>
<ItemRef ItemOID="IT.SUPPOE.QVAL.V1WOKYN"
  OrderNumber="23"
  Mandatory="NA"
  >
  <def:WhereClauseRef WhereClauseOID="WC.SUPPOE.QVAL.V1WOKYN"/>

</ItemRef>
<ItemRef ItemOID="IT.SUPPOE.QVAL.V1WOKN"
  OrderNumber="24"
  Mandatory="NA"
  >
  <def:WhereClauseRef WhereClauseOID="WC.SUPPOE.QVAL.V1WOKN"/>

</ItemRef>
<ItemRef ItemOID="IT.SUPPOE.QVAL.V1WOK_OD"
  OrderNumber="25"
  Mandatory="NA"
  >
  <def:WhereClauseRef WhereClauseOID="WC.SUPPOE.QVAL.V1WOK_OD"/>

</ItemRef>
<ItemRef ItemOID="IT.SUPPOE.QVAL.V1WOK_OS"
  OrderNumber="26"
  Mandatory="NA"
  >
  <def:WhereClauseRef WhereClauseOID="WC.SUPPOE.QVAL.V1WOK_OS"/>

</ItemRef>
<ItemRef ItemOID="IT.SUPPOE.QVAL.V1WOEGSYN"
  OrderNumber="27"
  Mandatory="NA"
  >
  <def:WhereClauseRef WhereClauseOID="WC.SUPPOE.QVAL.V1WOEGSYN"/>

</ItemRef>
<ItemRef ItemOID="IT.SUPPOE.QVAL.V1WOEGSN"
  OrderNumber="28"
  Mandatory="NA"
  >
  <def:WhereClauseRef WhereClauseOID="WC.SUPPOE.QVAL.V1WOEGSN"/>

</ItemRef>
<ItemRef ItemOID="IT.SUPPOE.QVAL.V1IPWO_YN"
  OrderNumber="29"
  Mandatory="NA"
  >
  <def:WhereClauseRef WhereClauseOID="WC.SUPPOE.QVAL.V1IPWO_YN"/>

</ItemRef>
<ItemRef ItemOID="IT.SUPPOE.QVAL.V1IPWO_N"
  OrderNumber="30"
  Mandatory="NA"
  >
  <def:WhereClauseRef WhereClauseOID="WC.SUPPOE.QVAL.V1IPWO_N"/>

</ItemRef>
<ItemRef ItemOID="IT.SUPPOE.QVAL.V1UFWO_YN"
  OrderNumber="31"
  Mandatory="NA"
  >
  <def:WhereClauseRef WhereClauseOID="WC.SUPPOE.QVAL.V1UFWO_YN"/>

</ItemRef>
<ItemRef ItemOID="IT.SUPPOE.QVAL.V1UFWO_N"
  OrderNumber="32"
  Mandatory="NA"
  >
  <def:WhereClauseRef WhereClauseOID="WC.SUPPOE.QVAL.V1UFWO_N"/>

</ItemRef>
<ItemRef ItemOID="IT.SUPPOE.QVAL.V1A2YN"
  OrderNumber="33"
  Mandatory="NA"
  >
  <def:WhereClauseRef WhereClauseOID="WC.SUPPOE.QVAL.V1A2YN"/>

</ItemRef>
<ItemRef ItemOID="IT.SUPPOE.QVAL.V1A2N"
  OrderNumber="34"
  Mandatory="NA"
  >
  <def:WhereClauseRef WhereClauseOID="WC.SUPPOE.QVAL.V1A2N"/>

</ItemRef>
<ItemRef ItemOID="IT.SUPPOE.QVAL.V3A1YN"
  OrderNumber="35"
  Mandatory="NA"
  >
  <def:WhereClauseRef WhereClauseOID="WC.SUPPOE.QVAL.V3A1YN"/>

</ItemRef>
<ItemRef ItemOID="IT.SUPPOE.QVAL.V3A1N"
  OrderNumber="36"
  Mandatory="NA"
  >
  <def:WhereClauseRef WhereClauseOID="WC.SUPPOE.QVAL.V3A1N"/>

</ItemRef>
<ItemRef ItemOID="IT.SUPPOE.QVAL.V3W_FPYN"
  OrderNumber="37"
  Mandatory="NA"
  >
  <def:WhereClauseRef WhereClauseOID="WC.SUPPOE.QVAL.V3W_FPYN"/>

</ItemRef>
<ItemRef ItemOID="IT.SUPPOE.QVAL.V3W_TSYNOD"
  OrderNumber="38"
  Mandatory="NA"
  >
  <def:WhereClauseRef WhereClauseOID="WC.SUPPOE.QVAL.V3W_TSYNOD"/>

</ItemRef>
<ItemRef ItemOID="IT.SUPPOE.QVAL.V3W_TSYNOS"
  OrderNumber="39"
  Mandatory="NA"
  >
  <def:WhereClauseRef WhereClauseOID="WC.SUPPOE.QVAL.V3W_TSYNOS"/>

</ItemRef>
<ItemRef ItemOID="IT.SUPPOE.QVAL.V3WKYN"
  OrderNumber="40"
  Mandatory="NA"
  >
  <def:WhereClauseRef WhereClauseOID="WC.SUPPOE.QVAL.V3WKYN"/>

</ItemRef>
<ItemRef ItemOID="IT.SUPPOE.QVAL.V3WKN"
  OrderNumber="41"
  Mandatory="NA"
  >
  <def:WhereClauseRef WhereClauseOID="WC.SUPPOE.QVAL.V3WKN"/>

</ItemRef>
<ItemRef ItemOID="IT.SUPPOE.QVAL.V3WK_OD"
  OrderNumber="42"
  Mandatory="NA"
  >
  <def:WhereClauseRef WhereClauseOID="WC.SUPPOE.QVAL.V3WK_OD"/>

</ItemRef>
<ItemRef ItemOID="IT.SUPPOE.QVAL.V3WK_OS"
  OrderNumber="43"
  Mandatory="NA"
  >
  <def:WhereClauseRef WhereClauseOID="WC.SUPPOE.QVAL.V3WK_OS"/>

</ItemRef>
<ItemRef ItemOID="IT.SUPPOE.QVAL.V3WEGSYN"
  OrderNumber="44"
  Mandatory="NA"
  >
  <def:WhereClauseRef WhereClauseOID="WC.SUPPOE.QVAL.V3WEGSYN"/>

</ItemRef>
<ItemRef ItemOID="IT.SUPPOE.QVAL.V3WEGSN"
  OrderNumber="45"
  Mandatory="NA"
  >
  <def:WhereClauseRef WhereClauseOID="WC.SUPPOE.QVAL.V3WEGSN"/>

</ItemRef>
<ItemRef ItemOID="IT.SUPPOE.QVAL.V3WO_FPYN"
  OrderNumber="46"
  Mandatory="NA"
  >
  <def:WhereClauseRef WhereClauseOID="WC.SUPPOE.QVAL.V3WO_FPYN"/>

</ItemRef>
<ItemRef ItemOID="IT.SUPPOE.QVAL.V3WO_TSYNOD"
  OrderNumber="47"
  Mandatory="NA"
  >
  <def:WhereClauseRef WhereClauseOID="WC.SUPPOE.QVAL.V3WO_TSYNOD"/>

</ItemRef>
<ItemRef ItemOID="IT.SUPPOE.QVAL.V3WO_TSYNOS"
  OrderNumber="48"
  Mandatory="NA"
  >
  <def:WhereClauseRef WhereClauseOID="WC.SUPPOE.QVAL.V3WO_TSYNOS"/>

</ItemRef>
<ItemRef ItemOID="IT.SUPPOE.QVAL.V3WOKYN"
  OrderNumber="49"
  Mandatory="NA"
  >
  <def:WhereClauseRef WhereClauseOID="WC.SUPPOE.QVAL.V3WOKYN"/>

</ItemRef>
<ItemRef ItemOID="IT.SUPPOE.QVAL.V3WOKN"
  OrderNumber="50"
  Mandatory="NA"
  >
  <def:WhereClauseRef WhereClauseOID="WC.SUPPOE.QVAL.V3WOKN"/>

</ItemRef>
<ItemRef ItemOID="IT.SUPPOE.QVAL.V3WOK_OD"
  OrderNumber="51"
  Mandatory="NA"
  >
  <def:WhereClauseRef WhereClauseOID="WC.SUPPOE.QVAL.V3WOK_OD"/>

</ItemRef>
<ItemRef ItemOID="IT.SUPPOE.QVAL.V3WOK_OS"
  OrderNumber="52"
  Mandatory="NA"
  >
  <def:WhereClauseRef WhereClauseOID="WC.SUPPOE.QVAL.V3WOK_OS"/>

</ItemRef>
<ItemRef ItemOID="IT.SUPPOE.QVAL.V3WOEGSYN"
  OrderNumber="53"
  Mandatory="NA"
  >
  <def:WhereClauseRef WhereClauseOID="WC.SUPPOE.QVAL.V3WOEGSYN"/>

</ItemRef>
<ItemRef ItemOID="IT.SUPPOE.QVAL.V3WOEGSN"
  OrderNumber="54"
  Mandatory="NA"
  >
  <def:WhereClauseRef WhereClauseOID="WC.SUPPOE.QVAL.V3WOEGSN"/>

</ItemRef>
<ItemRef ItemOID="IT.SUPPOE.QVAL.V3IPWO_YN"
  OrderNumber="55"
  Mandatory="NA"
  >
  <def:WhereClauseRef WhereClauseOID="WC.SUPPOE.QVAL.V3IPWO_YN"/>

</ItemRef>
<ItemRef ItemOID="IT.SUPPOE.QVAL.V3IPWO_N"
  OrderNumber="56"
  Mandatory="NA"
  >
  <def:WhereClauseRef WhereClauseOID="WC.SUPPOE.QVAL.V3IPWO_N"/>

</ItemRef>
<ItemRef ItemOID="IT.SUPPOE.QVAL.V3UFWO_YN"
  OrderNumber="57"
  Mandatory="NA"
  >
  <def:WhereClauseRef WhereClauseOID="WC.SUPPOE.QVAL.V3UFWO_YN"/>

</ItemRef>
<ItemRef ItemOID="IT.SUPPOE.QVAL.V3UFWO_N"
  OrderNumber="58"
  Mandatory="NA"
  >
  <def:WhereClauseRef WhereClauseOID="WC.SUPPOE.QVAL.V3UFWO_N"/>

</ItemRef>
<ItemRef ItemOID="IT.SUPPOE.QVAL.V3A2YN"
  OrderNumber="59"
  Mandatory="NA"
  >
  <def:WhereClauseRef WhereClauseOID="WC.SUPPOE.QVAL.V3A2YN"/>

</ItemRef>
<ItemRef ItemOID="IT.SUPPOE.QVAL.V3A2N"
  OrderNumber="60"
  Mandatory="NA"
  >
  <def:WhereClauseRef WhereClauseOID="WC.SUPPOE.QVAL.V3A2N"/>

</ItemRef>
<ItemRef ItemOID="IT.SUPPOE.QVAL.V5A1YN"
  OrderNumber="61"
  Mandatory="NA"
  >
  <def:WhereClauseRef WhereClauseOID="WC.SUPPOE.QVAL.V5A1YN"/>

</ItemRef>
<ItemRef ItemOID="IT.SUPPOE.QVAL.V5A1N"
  OrderNumber="62"
  Mandatory="NA"
  >
  <def:WhereClauseRef WhereClauseOID="WC.SUPPOE.QVAL.V5A1N"/>

</ItemRef>
<ItemRef ItemOID="IT.SUPPOE.QVAL.V5W_FPYN"
  OrderNumber="63"
  Mandatory="NA"
  >
  <def:WhereClauseRef WhereClauseOID="WC.SUPPOE.QVAL.V5W_FPYN"/>

</ItemRef>
<ItemRef ItemOID="IT.SUPPOE.QVAL.V5W_TSYNOD"
  OrderNumber="64"
  Mandatory="NA"
  >
  <def:WhereClauseRef WhereClauseOID="WC.SUPPOE.QVAL.V5W_TSYNOD"/>

</ItemRef>
<ItemRef ItemOID="IT.SUPPOE.QVAL.V5W_TSYNOS"
  OrderNumber="65"
  Mandatory="NA"
  >
  <def:WhereClauseRef WhereClauseOID="WC.SUPPOE.QVAL.V5W_TSYNOS"/>

</ItemRef>
<ItemRef ItemOID="IT.SUPPOE.QVAL.V5WKYN"
  OrderNumber="66"
  Mandatory="NA"
  >
  <def:WhereClauseRef WhereClauseOID="WC.SUPPOE.QVAL.V5WKYN"/>

</ItemRef>
<ItemRef ItemOID="IT.SUPPOE.QVAL.V5WKN"
  OrderNumber="67"
  Mandatory="NA"
  >
  <def:WhereClauseRef WhereClauseOID="WC.SUPPOE.QVAL.V5WKN"/>

</ItemRef>
<ItemRef ItemOID="IT.SUPPOE.QVAL.V5WK_OD"
  OrderNumber="68"
  Mandatory="NA"
  >
  <def:WhereClauseRef WhereClauseOID="WC.SUPPOE.QVAL.V5WK_OD"/>

</ItemRef>
<ItemRef ItemOID="IT.SUPPOE.QVAL.V5WK_OS"
  OrderNumber="69"
  Mandatory="NA"
  >
  <def:WhereClauseRef WhereClauseOID="WC.SUPPOE.QVAL.V5WK_OS"/>

</ItemRef>
<ItemRef ItemOID="IT.SUPPOE.QVAL.V5WEGSYN"
  OrderNumber="70"
  Mandatory="NA"
  >
  <def:WhereClauseRef WhereClauseOID="WC.SUPPOE.QVAL.V5WEGSYN"/>

</ItemRef>
<ItemRef ItemOID="IT.SUPPOE.QVAL.V5WEGSN"
  OrderNumber="71"
  Mandatory="NA"
  >
  <def:WhereClauseRef WhereClauseOID="WC.SUPPOE.QVAL.V5WEGSN"/>

</ItemRef>
<ItemRef ItemOID="IT.SUPPOE.QVAL.V5WO_FPYN"
  OrderNumber="72"
  Mandatory="NA"
  >
  <def:WhereClauseRef WhereClauseOID="WC.SUPPOE.QVAL.V5WO_FPYN"/>

</ItemRef>
<ItemRef ItemOID="IT.SUPPOE.QVAL.V5WO_TSYNOD"
  OrderNumber="73"
  Mandatory="NA"
  >
  <def:WhereClauseRef WhereClauseOID="WC.SUPPOE.QVAL.V5WO_TSYNOD"/>

</ItemRef>
<ItemRef ItemOID="IT.SUPPOE.QVAL.V5WO_TSYNOS"
  OrderNumber="74"
  Mandatory="NA"
  >
  <def:WhereClauseRef WhereClauseOID="WC.SUPPOE.QVAL.V5WO_TSYNOS"/>

</ItemRef>
<ItemRef ItemOID="IT.SUPPOE.QVAL.V5WOKYN"
  OrderNumber="75"
  Mandatory="NA"
  >
  <def:WhereClauseRef WhereClauseOID="WC.SUPPOE.QVAL.V5WOKYN"/>

</ItemRef>
<ItemRef ItemOID="IT.SUPPOE.QVAL.V5WOKN"
  OrderNumber="76"
  Mandatory="NA"
  >
  <def:WhereClauseRef WhereClauseOID="WC.SUPPOE.QVAL.V5WOKN"/>

</ItemRef>
<ItemRef ItemOID="IT.SUPPOE.QVAL.V5WOK_OD"
  OrderNumber="77"
  Mandatory="NA"
  >
  <def:WhereClauseRef WhereClauseOID="WC.SUPPOE.QVAL.V5WOK_OD"/>

</ItemRef>
<ItemRef ItemOID="IT.SUPPOE.QVAL.V5WOK_OS"
  OrderNumber="78"
  Mandatory="NA"
  >
  <def:WhereClauseRef WhereClauseOID="WC.SUPPOE.QVAL.V5WOK_OS"/>

</ItemRef>
<ItemRef ItemOID="IT.SUPPOE.QVAL.V5WOEGSYN"
  OrderNumber="79"
  Mandatory="NA"
  >
  <def:WhereClauseRef WhereClauseOID="WC.SUPPOE.QVAL.V5WOEGSYN"/>

</ItemRef>
<ItemRef ItemOID="IT.SUPPOE.QVAL.V5WOEGSN"
  OrderNumber="80"
  Mandatory="NA"
  >
  <def:WhereClauseRef WhereClauseOID="WC.SUPPOE.QVAL.V5WOEGSN"/>

</ItemRef>
<ItemRef ItemOID="IT.SUPPOE.QVAL.V5IPWO_YN"
  OrderNumber="81"
  Mandatory="NA"
  >
  <def:WhereClauseRef WhereClauseOID="WC.SUPPOE.QVAL.V5IPWO_YN"/>

</ItemRef>
<ItemRef ItemOID="IT.SUPPOE.QVAL.V5IPWO_N"
  OrderNumber="82"
  Mandatory="NA"
  >
  <def:WhereClauseRef WhereClauseOID="WC.SUPPOE.QVAL.V5IPWO_N"/>

</ItemRef>
<ItemRef ItemOID="IT.SUPPOE.QVAL.V5UFWO_YN"
  OrderNumber="83"
  Mandatory="NA"
  >
  <def:WhereClauseRef WhereClauseOID="WC.SUPPOE.QVAL.V5UFWO_YN"/>

</ItemRef>
<ItemRef ItemOID="IT.SUPPOE.QVAL.V5UFWO_N"
  OrderNumber="84"
  Mandatory="NA"
  >
  <def:WhereClauseRef WhereClauseOID="WC.SUPPOE.QVAL.V5UFWO_N"/>

</ItemRef>
<ItemRef ItemOID="IT.SUPPOE.QVAL.V5A2YN"
  OrderNumber="85"
  Mandatory="NA"
  >
  <def:WhereClauseRef WhereClauseOID="WC.SUPPOE.QVAL.V5A2YN"/>

</ItemRef>
<ItemRef ItemOID="IT.SUPPOE.QVAL.V5A2N"
  OrderNumber="86"
  Mandatory="NA"
  >
  <def:WhereClauseRef WhereClauseOID="WC.SUPPOE.QVAL.V5A2N"/>

</ItemRef>
<ItemRef ItemOID="IT.SUPPOE.QVAL.V6A1YN"
  OrderNumber="87"
  Mandatory="NA"
  >
  <def:WhereClauseRef WhereClauseOID="WC.SUPPOE.QVAL.V6A1YN"/>

</ItemRef>
<ItemRef ItemOID="IT.SUPPOE.QVAL.V6A1N"
  OrderNumber="88"
  Mandatory="NA"
  >
  <def:WhereClauseRef WhereClauseOID="WC.SUPPOE.QVAL.V6A1N"/>

</ItemRef>
<ItemRef ItemOID="IT.SUPPOE.QVAL.V6W_FPYN"
  OrderNumber="89"
  Mandatory="NA"
  >
  <def:WhereClauseRef WhereClauseOID="WC.SUPPOE.QVAL.V6W_FPYN"/>

</ItemRef>
<ItemRef ItemOID="IT.SUPPOE.QVAL.V6W_TSYNOD"
  OrderNumber="90"
  Mandatory="NA"
  >
  <def:WhereClauseRef WhereClauseOID="WC.SUPPOE.QVAL.V6W_TSYNOD"/>

</ItemRef>
<ItemRef ItemOID="IT.SUPPOE.QVAL.V6W_TSYNOS"
  OrderNumber="91"
  Mandatory="NA"
  >
  <def:WhereClauseRef WhereClauseOID="WC.SUPPOE.QVAL.V6W_TSYNOS"/>

</ItemRef>
<ItemRef ItemOID="IT.SUPPOE.QVAL.V6WKYN"
  OrderNumber="92"
  Mandatory="NA"
  >
  <def:WhereClauseRef WhereClauseOID="WC.SUPPOE.QVAL.V6WKYN"/>

</ItemRef>
<ItemRef ItemOID="IT.SUPPOE.QVAL.V6WKN"
  OrderNumber="93"
  Mandatory="NA"
  >
  <def:WhereClauseRef WhereClauseOID="WC.SUPPOE.QVAL.V6WKN"/>

</ItemRef>
<ItemRef ItemOID="IT.SUPPOE.QVAL.V6WK_OD"
  OrderNumber="94"
  Mandatory="NA"
  >
  <def:WhereClauseRef WhereClauseOID="WC.SUPPOE.QVAL.V6WK_OD"/>

</ItemRef>
<ItemRef ItemOID="IT.SUPPOE.QVAL.V6WK_OS"
  OrderNumber="95"
  Mandatory="NA"
  >
  <def:WhereClauseRef WhereClauseOID="WC.SUPPOE.QVAL.V6WK_OS"/>

</ItemRef>
<ItemRef ItemOID="IT.SUPPOE.QVAL.V6WEGSYN"
  OrderNumber="96"
  Mandatory="NA"
  >
  <def:WhereClauseRef WhereClauseOID="WC.SUPPOE.QVAL.V6WEGSYN"/>

</ItemRef>
<ItemRef ItemOID="IT.SUPPOE.QVAL.V6WEGSN"
  OrderNumber="97"
  Mandatory="NA"
  >
  <def:WhereClauseRef WhereClauseOID="WC.SUPPOE.QVAL.V6WEGSN"/>

</ItemRef>
<ItemRef ItemOID="IT.SUPPOE.QVAL.V6WO_FPYN"
  OrderNumber="98"
  Mandatory="NA"
  >
  <def:WhereClauseRef WhereClauseOID="WC.SUPPOE.QVAL.V6WO_FPYN"/>

</ItemRef>
<ItemRef ItemOID="IT.SUPPOE.QVAL.V6WO_TSYNOD"
  OrderNumber="99"
  Mandatory="NA"
  >
  <def:WhereClauseRef WhereClauseOID="WC.SUPPOE.QVAL.V6WO_TSYNOD"/>

</ItemRef>
<ItemRef ItemOID="IT.SUPPOE.QVAL.V6WO_TSYNOS"
  OrderNumber="100"
  Mandatory="NA"
  >
  <def:WhereClauseRef WhereClauseOID="WC.SUPPOE.QVAL.V6WO_TSYNOS"/>

</ItemRef>
<ItemRef ItemOID="IT.SUPPOE.QVAL.V6WOKYN"
  OrderNumber="101"
  Mandatory="NA"
  >
  <def:WhereClauseRef WhereClauseOID="WC.SUPPOE.QVAL.V6WOKYN"/>

</ItemRef>
<ItemRef ItemOID="IT.SUPPOE.QVAL.V6WOKN"
  OrderNumber="102"
  Mandatory="NA"
  >
  <def:WhereClauseRef WhereClauseOID="WC.SUPPOE.QVAL.V6WOKN"/>

</ItemRef>
<ItemRef ItemOID="IT.SUPPOE.QVAL.V6WOK_OD"
  OrderNumber="103"
  Mandatory="NA"
  >
  <def:WhereClauseRef WhereClauseOID="WC.SUPPOE.QVAL.V6WOK_OD"/>

</ItemRef>
<ItemRef ItemOID="IT.SUPPOE.QVAL.V6WOK_OS"
  OrderNumber="104"
  Mandatory="NA"
  >
  <def:WhereClauseRef WhereClauseOID="WC.SUPPOE.QVAL.V6WOK_OS"/>

</ItemRef>
<ItemRef ItemOID="IT.SUPPOE.QVAL.V6WOEGSYN"
  OrderNumber="105"
  Mandatory="NA"
  >
  <def:WhereClauseRef WhereClauseOID="WC.SUPPOE.QVAL.V6WOEGSYN"/>

</ItemRef>
<ItemRef ItemOID="IT.SUPPOE.QVAL.V6WOEGSN"
  OrderNumber="106"
  Mandatory="NA"
  >
  <def:WhereClauseRef WhereClauseOID="WC.SUPPOE.QVAL.V6WOEGSN"/>

</ItemRef>
<ItemRef ItemOID="IT.SUPPOE.QVAL.V6IPWO_YN"
  OrderNumber="107"
  Mandatory="NA"
  >
  <def:WhereClauseRef WhereClauseOID="WC.SUPPOE.QVAL.V6IPWO_YN"/>

</ItemRef>
<ItemRef ItemOID="IT.SUPPOE.QVAL.V6IPWO_N"
  OrderNumber="108"
  Mandatory="NA"
  >
  <def:WhereClauseRef WhereClauseOID="WC.SUPPOE.QVAL.V6IPWO_N"/>

</ItemRef>
<ItemRef ItemOID="IT.SUPPOE.QVAL.V6UFWO_YN"
  OrderNumber="109"
  Mandatory="NA"
  >
  <def:WhereClauseRef WhereClauseOID="WC.SUPPOE.QVAL.V6UFWO_YN"/>

</ItemRef>
<ItemRef ItemOID="IT.SUPPOE.QVAL.V6UFWO_N"
  OrderNumber="110"
  Mandatory="NA"
  >
  <def:WhereClauseRef WhereClauseOID="WC.SUPPOE.QVAL.V6UFWO_N"/>

</ItemRef>
<ItemRef ItemOID="IT.SUPPOE.QVAL.V6A2YN"
  OrderNumber="111"
  Mandatory="NA"
  >
  <def:WhereClauseRef WhereClauseOID="WC.SUPPOE.QVAL.V6A2YN"/>

</ItemRef>
<ItemRef ItemOID="IT.SUPPOE.QVAL.V6A2N"
  OrderNumber="112"
  Mandatory="NA"
  >
  <def:WhereClauseRef WhereClauseOID="WC.SUPPOE.QVAL.V6A2N"/>

</ItemRef>
<ItemRef ItemOID="IT.SUPPOE.QVAL.V7A1YN"
  OrderNumber="113"
  Mandatory="NA"
  >
  <def:WhereClauseRef WhereClauseOID="WC.SUPPOE.QVAL.V7A1YN"/>

</ItemRef>
<ItemRef ItemOID="IT.SUPPOE.QVAL.V7A1N"
  OrderNumber="114"
  Mandatory="NA"
  >
  <def:WhereClauseRef WhereClauseOID="WC.SUPPOE.QVAL.V7A1N"/>

</ItemRef>
<ItemRef ItemOID="IT.SUPPOE.QVAL.V7W_FPYN"
  OrderNumber="115"
  Mandatory="NA"
  >
  <def:WhereClauseRef WhereClauseOID="WC.SUPPOE.QVAL.V7W_FPYN"/>

</ItemRef>
<ItemRef ItemOID="IT.SUPPOE.QVAL.V7W_TSYNOD"
  OrderNumber="116"
  Mandatory="NA"
  >
  <def:WhereClauseRef WhereClauseOID="WC.SUPPOE.QVAL.V7W_TSYNOD"/>

</ItemRef>
<ItemRef ItemOID="IT.SUPPOE.QVAL.V7W_TSYNOS"
  OrderNumber="117"
  Mandatory="NA"
  >
  <def:WhereClauseRef WhereClauseOID="WC.SUPPOE.QVAL.V7W_TSYNOS"/>

</ItemRef>
<ItemRef ItemOID="IT.SUPPOE.QVAL.V7WKYN"
  OrderNumber="118"
  Mandatory="NA"
  >
  <def:WhereClauseRef WhereClauseOID="WC.SUPPOE.QVAL.V7WKYN"/>

</ItemRef>
<ItemRef ItemOID="IT.SUPPOE.QVAL.V7WKN"
  OrderNumber="119"
  Mandatory="NA"
  >
  <def:WhereClauseRef WhereClauseOID="WC.SUPPOE.QVAL.V7WKN"/>

</ItemRef>
<ItemRef ItemOID="IT.SUPPOE.QVAL.V7WK_OD"
  OrderNumber="120"
  Mandatory="NA"
  >
  <def:WhereClauseRef WhereClauseOID="WC.SUPPOE.QVAL.V7WK_OD"/>

</ItemRef>
<ItemRef ItemOID="IT.SUPPOE.QVAL.V7WK_OS"
  OrderNumber="121"
  Mandatory="NA"
  >
  <def:WhereClauseRef WhereClauseOID="WC.SUPPOE.QVAL.V7WK_OS"/>

</ItemRef>
<ItemRef ItemOID="IT.SUPPOE.QVAL.V7WEGSYN"
  OrderNumber="122"
  Mandatory="NA"
  >
  <def:WhereClauseRef WhereClauseOID="WC.SUPPOE.QVAL.V7WEGSYN"/>

</ItemRef>
<ItemRef ItemOID="IT.SUPPOE.QVAL.V7WEGSN"
  OrderNumber="123"
  Mandatory="NA"
  >
  <def:WhereClauseRef WhereClauseOID="WC.SUPPOE.QVAL.V7WEGSN"/>

</ItemRef>
<ItemRef ItemOID="IT.SUPPOE.QVAL.V7WO_FPYN"
  OrderNumber="124"
  Mandatory="NA"
  >
  <def:WhereClauseRef WhereClauseOID="WC.SUPPOE.QVAL.V7WO_FPYN"/>

</ItemRef>
<ItemRef ItemOID="IT.SUPPOE.QVAL.V7WO_TSYNOD"
  OrderNumber="125"
  Mandatory="NA"
  >
  <def:WhereClauseRef WhereClauseOID="WC.SUPPOE.QVAL.V7WO_TSYNOD"/>

</ItemRef>
<ItemRef ItemOID="IT.SUPPOE.QVAL.V7WO_TSYNOS"
  OrderNumber="126"
  Mandatory="NA"
  >
  <def:WhereClauseRef WhereClauseOID="WC.SUPPOE.QVAL.V7WO_TSYNOS"/>

</ItemRef>
<ItemRef ItemOID="IT.SUPPOE.QVAL.V7WOKYN"
  OrderNumber="127"
  Mandatory="NA"
  >
  <def:WhereClauseRef WhereClauseOID="WC.SUPPOE.QVAL.V7WOKYN"/>

</ItemRef>
<ItemRef ItemOID="IT.SUPPOE.QVAL.V7WOKN"
  OrderNumber="128"
  Mandatory="NA"
  >
  <def:WhereClauseRef WhereClauseOID="WC.SUPPOE.QVAL.V7WOKN"/>

</ItemRef>
<ItemRef ItemOID="IT.SUPPOE.QVAL.V7WOK_OD"
  OrderNumber="129"
  Mandatory="NA"
  >
  <def:WhereClauseRef WhereClauseOID="WC.SUPPOE.QVAL.V7WOK_OD"/>

</ItemRef>
<ItemRef ItemOID="IT.SUPPOE.QVAL.V7WOK_OS"
  OrderNumber="130"
  Mandatory="NA"
  >
  <def:WhereClauseRef WhereClauseOID="WC.SUPPOE.QVAL.V7WOK_OS"/>

</ItemRef>
<ItemRef ItemOID="IT.SUPPOE.QVAL.V7WOEGSYN"
  OrderNumber="131"
  Mandatory="NA"
  >
  <def:WhereClauseRef WhereClauseOID="WC.SUPPOE.QVAL.V7WOEGSYN"/>

</ItemRef>
<ItemRef ItemOID="IT.SUPPOE.QVAL.V7WOEGSN"
  OrderNumber="132"
  Mandatory="NA"
  >
  <def:WhereClauseRef WhereClauseOID="WC.SUPPOE.QVAL.V7WOEGSN"/>

</ItemRef>
<ItemRef ItemOID="IT.SUPPOE.QVAL.V7IPWO_YN"
  OrderNumber="133"
  Mandatory="NA"
  >
  <def:WhereClauseRef WhereClauseOID="WC.SUPPOE.QVAL.V7IPWO_YN"/>

</ItemRef>
<ItemRef ItemOID="IT.SUPPOE.QVAL.V7IPWO_N"
  OrderNumber="134"
  Mandatory="NA"
  >
  <def:WhereClauseRef WhereClauseOID="WC.SUPPOE.QVAL.V7IPWO_N"/>

</ItemRef>
<ItemRef ItemOID="IT.SUPPOE.QVAL.V7UFWO_YN"
  OrderNumber="135"
  Mandatory="NA"
  >
  <def:WhereClauseRef WhereClauseOID="WC.SUPPOE.QVAL.V7UFWO_YN"/>

</ItemRef>
<ItemRef ItemOID="IT.SUPPOE.QVAL.V7UFWO_N"
  OrderNumber="136"
  Mandatory="NA"
  >
  <def:WhereClauseRef WhereClauseOID="WC.SUPPOE.QVAL.V7UFWO_N"/>

</ItemRef>
<ItemRef ItemOID="IT.SUPPOE.QVAL.V7A2YN"
  OrderNumber="137"
  Mandatory="NA"
  >
  <def:WhereClauseRef WhereClauseOID="WC.SUPPOE.QVAL.V7A2YN"/>

</ItemRef>
<ItemRef ItemOID="IT.SUPPOE.QVAL.V7A2N"
  OrderNumber="138"
  Mandatory="NA"
  >
  <def:WhereClauseRef WhereClauseOID="WC.SUPPOE.QVAL.V7A2N"/>

</ItemRef>
 </def:ValueListDef>

<def:ValueListDef OID="VL.SUPPQS.QVAL">
<ItemRef ItemOID="IT.SUPPQS.QVAL.V2D_MSEVA"
  OrderNumber="1"
  Mandatory="NA"
  >
  <def:WhereClauseRef WhereClauseOID="WC.SUPPQS.QVAL.V2D_MSEVA"/>

</ItemRef>
<ItemRef ItemOID="IT.SUPPQS.QVAL.V2N_MSEVA"
  OrderNumber="2"
  Mandatory="NA"
  >
  <def:WhereClauseRef WhereClauseOID="WC.SUPPQS.QVAL.V2N_MSEVA"/>

</ItemRef>
<ItemRef ItemOID="IT.SUPPQS.QVAL.V2_GOSDS"
  OrderNumber="3"
  Mandatory="NA"
  >
  <def:WhereClauseRef WhereClauseOID="WC.SUPPQS.QVAL.V2_GOSDS"/>

</ItemRef>
<ItemRef ItemOID="IT.SUPPQS.QVAL.V4D_MSEVA"
  OrderNumber="4"
  Mandatory="NA"
  >
  <def:WhereClauseRef WhereClauseOID="WC.SUPPQS.QVAL.V4D_MSEVA"/>

</ItemRef>
<ItemRef ItemOID="IT.SUPPQS.QVAL.V4N_MSEVA"
  OrderNumber="5"
  Mandatory="NA"
  >
  <def:WhereClauseRef WhereClauseOID="WC.SUPPQS.QVAL.V4N_MSEVA"/>

</ItemRef>
<ItemRef ItemOID="IT.SUPPQS.QVAL.V4_GOSDS"
  OrderNumber="6"
  Mandatory="NA"
  >
  <def:WhereClauseRef WhereClauseOID="WC.SUPPQS.QVAL.V4_GOSDS"/>

</ItemRef>
 </def:ValueListDef>


  <!-- ****************************************************************** -->
  <!-- WhereClause Definitions Used/Referenced in Value List Definitions) -->
  <!-- ****************************************************************** -->
<def:WhereClauseDef OID="WC.WC.LB.LBTESTCD.GLUC.LBCAT.CHEMISTRY">
<RangeCheck SoftHard="Soft" def:ItemOID="IT.LB.LBCAT" Comparator="EQ">
<CheckValue>CHEMISTRY</CheckValue>
</RangeCheck>
<RangeCheck SoftHard="Soft" def:ItemOID="IT.LB.LBTESTCD" Comparator="EQ">
<CheckValue>GLUC</CheckValue>
</RangeCheck>
</def:WhereClauseDef>
<def:WhereClauseDef OID="WC.WC.LB.LBTESTCD.GLUC.LBCAT.URINALYSIS">
<RangeCheck SoftHard="Soft" def:ItemOID="IT.LB.LBCAT" Comparator="EQ">
<CheckValue>URINALYSIS</CheckValue>
</RangeCheck>
<RangeCheck SoftHard="Soft" def:ItemOID="IT.LB.LBTESTCD" Comparator="EQ">
<CheckValue>GLUC</CheckValue>
</RangeCheck>
</def:WhereClauseDef>
<def:WhereClauseDef OID="WC.SUPPMH.QVAL.V1CVCON">
<RangeCheck SoftHard="Soft" def:ItemOID="IT.SUPPMH.QNAM" Comparator="EQ">
<CheckValue>V1CVCON</CheckValue>
</RangeCheck>
</def:WhereClauseDef>
<def:WhereClauseDef OID="WC.SUPPMH.QVAL.V1CVSUS">
<RangeCheck SoftHard="Soft" def:ItemOID="IT.SUPPMH.QNAM" Comparator="EQ">
<CheckValue>V1CVSUS</CheckValue>
</RangeCheck>
</def:WhereClauseDef>
<def:WhereClauseDef OID="WC.SUPPMH.QVAL.V1CVLOC">
<RangeCheck SoftHard="Soft" def:ItemOID="IT.SUPPMH.QNAM" Comparator="EQ">
<CheckValue>V1CVLOC</CheckValue>
</RangeCheck>
</def:WhereClauseDef>
<def:WhereClauseDef OID="WC.SUPPMH.QVAL.V1CVRES">
<RangeCheck SoftHard="Soft" def:ItemOID="IT.SUPPMH.QNAM" Comparator="EQ">
<CheckValue>V1CVRES</CheckValue>
</RangeCheck>
</def:WhereClauseDef>
<def:WhereClauseDef OID="WC.SUPPMH.QVAL.V1CVFEV">
<RangeCheck SoftHard="Soft" def:ItemOID="IT.SUPPMH.QNAM" Comparator="EQ">
<CheckValue>V1CVFEV</CheckValue>
</RangeCheck>
</def:WhereClauseDef>
<def:WhereClauseDef OID="WC.SUPPMH.QVAL.V1CVCOU">
<RangeCheck SoftHard="Soft" def:ItemOID="IT.SUPPMH.QNAM" Comparator="EQ">
<CheckValue>V1CVCOU</CheckValue>
</RangeCheck>
</def:WhereClauseDef>
<def:WhereClauseDef OID="WC.SUPPMH.QVAL.V1CVBRE">
<RangeCheck SoftHard="Soft" def:ItemOID="IT.SUPPMH.QNAM" Comparator="EQ">
<CheckValue>V1CVBRE</CheckValue>
</RangeCheck>
</def:WhereClauseDef>
<def:WhereClauseDef OID="WC.SUPPMH.QVAL.V1CVCHP">
<RangeCheck SoftHard="Soft" def:ItemOID="IT.SUPPMH.QNAM" Comparator="EQ">
<CheckValue>V1CVCHP</CheckValue>
</RangeCheck>
</def:WhereClauseDef>
<def:WhereClauseDef OID="WC.SUPPMH.QVAL.V1CVSTH">
<RangeCheck SoftHard="Soft" def:ItemOID="IT.SUPPMH.QNAM" Comparator="EQ">
<CheckValue>V1CVSTH</CheckValue>
</RangeCheck>
</def:WhereClauseDef>
<def:WhereClauseDef OID="WC.SUPPMH.QVAL.V1CVNVG">
<RangeCheck SoftHard="Soft" def:ItemOID="IT.SUPPMH.QNAM" Comparator="EQ">
<CheckValue>V1CVNVG</CheckValue>
</RangeCheck>
</def:WhereClauseDef>
<def:WhereClauseDef OID="WC.SUPPMH.QVAL.V1CVTST">
<RangeCheck SoftHard="Soft" def:ItemOID="IT.SUPPMH.QNAM" Comparator="EQ">
<CheckValue>V1CVTST</CheckValue>
</RangeCheck>
</def:WhereClauseDef>
<def:WhereClauseDef OID="WC.SUPPMH.QVAL.V1CVMAC">
<RangeCheck SoftHard="Soft" def:ItemOID="IT.SUPPMH.QNAM" Comparator="EQ">
<CheckValue>V1CVMAC</CheckValue>
</RangeCheck>
</def:WhereClauseDef>
<def:WhereClauseDef OID="WC.SUPPMH.QVAL.V1CVFAT">
<RangeCheck SoftHard="Soft" def:ItemOID="IT.SUPPMH.QNAM" Comparator="EQ">
<CheckValue>V1CVFAT</CheckValue>
</RangeCheck>
</def:WhereClauseDef>
<def:WhereClauseDef OID="WC.SUPPMH.QVAL.V1CVANY">
<RangeCheck SoftHard="Soft" def:ItemOID="IT.SUPPMH.QNAM" Comparator="EQ">
<CheckValue>V1CVANY</CheckValue>
</RangeCheck>
</def:WhereClauseDef>
<def:WhereClauseDef OID="WC.SUPPMH.QVAL.V1CVANY_Oth">
<RangeCheck SoftHard="Soft" def:ItemOID="IT.SUPPMH.QNAM" Comparator="EQ">
<CheckValue>V1CVANY_Oth</CheckValue>
</RangeCheck>
</def:WhereClauseDef>
<def:WhereClauseDef OID="WC.SUPPMH.QVAL.OHCOM">
<RangeCheck SoftHard="Soft" def:ItemOID="IT.SUPPMH.QNAM" Comparator="EQ">
<CheckValue>OHCOM</CheckValue>
</RangeCheck>
</def:WhereClauseDef>
<def:WhereClauseDef OID="WC.SUPPMH.QVAL.OPCOM">
<RangeCheck SoftHard="Soft" def:ItemOID="IT.SUPPMH.QNAM" Comparator="EQ">
<CheckValue>OPCOM</CheckValue>
</RangeCheck>
</def:WhereClauseDef>
<def:WhereClauseDef OID="WC.SUPPMH.QVAL.MHCOM">
<RangeCheck SoftHard="Soft" def:ItemOID="IT.SUPPMH.QNAM" Comparator="EQ">
<CheckValue>MHCOM</CheckValue>
</RangeCheck>
</def:WhereClauseDef>
<def:WhereClauseDef OID="WC.SUPPMH.QVAL.PRYN">
<RangeCheck SoftHard="Soft" def:ItemOID="IT.SUPPMH.QNAM" Comparator="EQ">
<CheckValue>PRYN</CheckValue>
</RangeCheck>
</def:WhereClauseDef>
<def:WhereClauseDef OID="WC.SUPPMH.QVAL.PRCOM">
<RangeCheck SoftHard="Soft" def:ItemOID="IT.SUPPMH.QNAM" Comparator="EQ">
<CheckValue>PRCOM</CheckValue>
</RangeCheck>
</def:WhereClauseDef>
<def:WhereClauseDef OID="WC.SUPPMH.QVAL.V1CPHY">
<RangeCheck SoftHard="Soft" def:ItemOID="IT.SUPPMH.QNAM" Comparator="EQ">
<CheckValue>V1CPHY</CheckValue>
</RangeCheck>
</def:WhereClauseDef>
<def:WhereClauseDef OID="WC.SUPPMH.QVAL.V1CPOO">
<RangeCheck SoftHard="Soft" def:ItemOID="IT.SUPPMH.QNAM" Comparator="EQ">
<CheckValue>V1CPOO</CheckValue>
</RangeCheck>
</def:WhereClauseDef>
<def:WhereClauseDef OID="WC.SUPPDM.QVAL.SCREENO">
<RangeCheck SoftHard="Soft" def:ItemOID="IT.SUPPDM.QNAM" Comparator="EQ">
<CheckValue>SCREENO</CheckValue>
</RangeCheck>
</def:WhereClauseDef>
<def:WhereClauseDef OID="WC.SUPPDM.QVAL.RANDNO">
<RangeCheck SoftHard="Soft" def:ItemOID="IT.SUPPDM.QNAM" Comparator="EQ">
<CheckValue>RANDNO</CheckValue>
</RangeCheck>
</def:WhereClauseDef>
<def:WhereClauseDef OID="WC.SUPPDM.QVAL.RACEOTH">
<RangeCheck SoftHard="Soft" def:ItemOID="IT.SUPPDM.QNAM" Comparator="EQ">
<CheckValue>RACEOTH</CheckValue>
</RangeCheck>
</def:WhereClauseDef>
<def:WhereClauseDef OID="WC.SUPPDM.QVAL.ONNOT">
<RangeCheck SoftHard="Soft" def:ItemOID="IT.SUPPDM.QNAM" Comparator="EQ">
<CheckValue>ONNOT</CheckValue>
</RangeCheck>
</def:WhereClauseDef>
<def:WhereClauseDef OID="WC.SUPPDM.QVAL.ONNOTDTC">
<RangeCheck SoftHard="Soft" def:ItemOID="IT.SUPPDM.QNAM" Comparator="EQ">
<CheckValue>ONNOTDTC</CheckValue>
</RangeCheck>
</def:WhereClauseDef>
<def:WhereClauseDef OID="WC.SUPPDM.QVAL.OPNOT">
<RangeCheck SoftHard="Soft" def:ItemOID="IT.SUPPDM.QNAM" Comparator="EQ">
<CheckValue>OPNOT</CheckValue>
</RangeCheck>
</def:WhereClauseDef>
<def:WhereClauseDef OID="WC.SUPPDM.QVAL.OPNOTDTC">
<RangeCheck SoftHard="Soft" def:ItemOID="IT.SUPPDM.QNAM" Comparator="EQ">
<CheckValue>OPNOTDTC</CheckValue>
</RangeCheck>
</def:WhereClauseDef>
<def:WhereClauseDef OID="WC.SUPPCM.QVAL.V1CPYCON_Oth">
<RangeCheck SoftHard="Soft" def:ItemOID="IT.SUPPCM.QNAM" Comparator="EQ">
<CheckValue>V1CPYCON_Oth</CheckValue>
</RangeCheck>
</def:WhereClauseDef>
<def:WhereClauseDef OID="WC.SUPPCM.QVAL.V1CPYCONYN_Oth">
<RangeCheck SoftHard="Soft" def:ItemOID="IT.SUPPCM.QNAM" Comparator="EQ">
<CheckValue>V1CPYCONYN_Oth</CheckValue>
</RangeCheck>
</def:WhereClauseDef>
<def:WhereClauseDef OID="WC.SUPPCM.QVAL.V1NOMH60YN">
<RangeCheck SoftHard="Soft" def:ItemOID="IT.SUPPCM.QNAM" Comparator="EQ">
<CheckValue>V1NOMH60YN</CheckValue>
</RangeCheck>
</def:WhereClauseDef>
<def:WhereClauseDef OID="WC.SUPPCM.QVAL.V1NOMHBLYN">
<RangeCheck SoftHard="Soft" def:ItemOID="IT.SUPPCM.QNAM" Comparator="EQ">
<CheckValue>V1NOMHBLYN</CheckValue>
</RangeCheck>
</def:WhereClauseDef>
<def:WhereClauseDef OID="WC.SUPPCM.QVAL.V1TDYN">
<RangeCheck SoftHard="Soft" def:ItemOID="IT.SUPPCM.QNAM" Comparator="EQ">
<CheckValue>V1TDYN</CheckValue>
</RangeCheck>
</def:WhereClauseDef>
<def:WhereClauseDef OID="WC.SUPPCM.QVAL.V1TDPPYN">
<RangeCheck SoftHard="Soft" def:ItemOID="IT.SUPPCM.QNAM" Comparator="EQ">
<CheckValue>V1TDPPYN</CheckValue>
</RangeCheck>
</def:WhereClauseDef>
<def:WhereClauseDef OID="WC.SUPPCM.QVAL.V1TDPPDTC">
<RangeCheck SoftHard="Soft" def:ItemOID="IT.SUPPCM.QNAM" Comparator="EQ">
<CheckValue>V1TDPPDTC</CheckValue>
</RangeCheck>
</def:WhereClauseDef>
<def:WhereClauseDef OID="WC.SUPPCM.QVAL.V1TDPP1DTC">
<RangeCheck SoftHard="Soft" def:ItemOID="IT.SUPPCM.QNAM" Comparator="EQ">
<CheckValue>V1TDPP1DTC</CheckValue>
</RangeCheck>
</def:WhereClauseDef>
<def:WhereClauseDef OID="WC.SUPPCM.QVAL.V1TDPP2DTC">
<RangeCheck SoftHard="Soft" def:ItemOID="IT.SUPPCM.QNAM" Comparator="EQ">
<CheckValue>V1TDPP2DTC</CheckValue>
</RangeCheck>
</def:WhereClauseDef>
<def:WhereClauseDef OID="WC.SUPPCM.QVAL.V1TDPP3DTC">
<RangeCheck SoftHard="Soft" def:ItemOID="IT.SUPPCM.QNAM" Comparator="EQ">
<CheckValue>V1TDPP3DTC</CheckValue>
</RangeCheck>
</def:WhereClauseDef>
<def:WhereClauseDef OID="WC.SUPPCM.QVAL.V1TDGYM">
<RangeCheck SoftHard="Soft" def:ItemOID="IT.SUPPCM.QNAM" Comparator="EQ">
<CheckValue>V1TDGYM</CheckValue>
</RangeCheck>
</def:WhereClauseDef>
<def:WhereClauseDef OID="WC.SUPPCM.QVAL.V1TDGOD">
<RangeCheck SoftHard="Soft" def:ItemOID="IT.SUPPCM.QNAM" Comparator="EQ">
<CheckValue>V1TDGOD</CheckValue>
</RangeCheck>
</def:WhereClauseDef>
<def:WhereClauseDef OID="WC.SUPPCM.QVAL.V1TDGOS">
<RangeCheck SoftHard="Soft" def:ItemOID="IT.SUPPCM.QNAM" Comparator="EQ">
<CheckValue>V1TDGOS</CheckValue>
</RangeCheck>
</def:WhereClauseDef>
<def:WhereClauseDef OID="WC.LB.LBORRES.HCG">
<RangeCheck SoftHard="Soft" def:ItemOID="IT.LB.LBTESTCD" Comparator="EQ">
<CheckValue>HCG</CheckValue>
</RangeCheck>
</def:WhereClauseDef>
<def:WhereClauseDef OID="WC.LB.LBORRES.PROGEST">
<RangeCheck SoftHard="Soft" def:ItemOID="IT.LB.LBTESTCD" Comparator="EQ">
<CheckValue>PROGEST</CheckValue>
</RangeCheck>
</def:WhereClauseDef>
<def:WhereClauseDef OID="WC.LB.LBORRES.TESTOS">
<RangeCheck SoftHard="Soft" def:ItemOID="IT.LB.LBTESTCD" Comparator="EQ">
<CheckValue>TESTOS</CheckValue>
</RangeCheck>
</def:WhereClauseDef>
<def:WhereClauseDef OID="WC.LB.LBORRES.ESTRDIOL">
<RangeCheck SoftHard="Soft" def:ItemOID="IT.LB.LBTESTCD" Comparator="EQ">
<CheckValue>ESTRDIOL</CheckValue>
</RangeCheck>
</def:WhereClauseDef>
<def:WhereClauseDef OID="WC.LB.LBORRES.DHT">
<RangeCheck SoftHard="Soft" def:ItemOID="IT.LB.LBTESTCD" Comparator="EQ">
<CheckValue>DHT</CheckValue>
</RangeCheck>
</def:WhereClauseDef>
<def:WhereClauseDef OID="WC.LB.LBORRES.LH">
<RangeCheck SoftHard="Soft" def:ItemOID="IT.LB.LBTESTCD" Comparator="EQ">
<CheckValue>LH</CheckValue>
</RangeCheck>
</def:WhereClauseDef>
<def:WhereClauseDef OID="WC.LB.LBORRES.FSH">
<RangeCheck SoftHard="Soft" def:ItemOID="IT.LB.LBTESTCD" Comparator="EQ">
<CheckValue>FSH</CheckValue>
</RangeCheck>
</def:WhereClauseDef>
<def:WhereClauseDef OID="WC.IE.IEORRES.IC01">
<RangeCheck SoftHard="Soft" def:ItemOID="IT.IE.IETESTCD" Comparator="EQ">
<CheckValue>IC01</CheckValue>
</RangeCheck>
</def:WhereClauseDef>
<def:WhereClauseDef OID="WC.IE.IEORRES.IC02">
<RangeCheck SoftHard="Soft" def:ItemOID="IT.IE.IETESTCD" Comparator="EQ">
<CheckValue>IC02</CheckValue>
</RangeCheck>
</def:WhereClauseDef>
<def:WhereClauseDef OID="WC.IE.IEORRES.IC03">
<RangeCheck SoftHard="Soft" def:ItemOID="IT.IE.IETESTCD" Comparator="EQ">
<CheckValue>IC03</CheckValue>
</RangeCheck>
</def:WhereClauseDef>
<def:WhereClauseDef OID="WC.IE.IEORRES.IC04">
<RangeCheck SoftHard="Soft" def:ItemOID="IT.IE.IETESTCD" Comparator="EQ">
<CheckValue>IC04</CheckValue>
</RangeCheck>
</def:WhereClauseDef>
<def:WhereClauseDef OID="WC.IE.IEORRES.IC05">
<RangeCheck SoftHard="Soft" def:ItemOID="IT.IE.IETESTCD" Comparator="EQ">
<CheckValue>IC05</CheckValue>
</RangeCheck>
</def:WhereClauseDef>
<def:WhereClauseDef OID="WC.IE.IEORRES.IC06">
<RangeCheck SoftHard="Soft" def:ItemOID="IT.IE.IETESTCD" Comparator="EQ">
<CheckValue>IC06</CheckValue>
</RangeCheck>
</def:WhereClauseDef>
<def:WhereClauseDef OID="WC.IE.IEORRES.IC07">
<RangeCheck SoftHard="Soft" def:ItemOID="IT.IE.IETESTCD" Comparator="EQ">
<CheckValue>IC07</CheckValue>
</RangeCheck>
</def:WhereClauseDef>
<def:WhereClauseDef OID="WC.IE.IEORRES.IC08">
<RangeCheck SoftHard="Soft" def:ItemOID="IT.IE.IETESTCD" Comparator="EQ">
<CheckValue>IC08</CheckValue>
</RangeCheck>
</def:WhereClauseDef>
<def:WhereClauseDef OID="WC.IE.IEORRES.IC09">
<RangeCheck SoftHard="Soft" def:ItemOID="IT.IE.IETESTCD" Comparator="EQ">
<CheckValue>IC09</CheckValue>
</RangeCheck>
</def:WhereClauseDef>
<def:WhereClauseDef OID="WC.IE.IEORRES.IC10">
<RangeCheck SoftHard="Soft" def:ItemOID="IT.IE.IETESTCD" Comparator="EQ">
<CheckValue>IC10</CheckValue>
</RangeCheck>
</def:WhereClauseDef>
<def:WhereClauseDef OID="WC.IE.IEORRES.EX01">
<RangeCheck SoftHard="Soft" def:ItemOID="IT.IE.IETESTCD" Comparator="EQ">
<CheckValue>EX01</CheckValue>
</RangeCheck>
</def:WhereClauseDef>
<def:WhereClauseDef OID="WC.IE.IEORRES.EX02">
<RangeCheck SoftHard="Soft" def:ItemOID="IT.IE.IETESTCD" Comparator="EQ">
<CheckValue>EX02</CheckValue>
</RangeCheck>
</def:WhereClauseDef>
<def:WhereClauseDef OID="WC.IE.IEORRES.EX03">
<RangeCheck SoftHard="Soft" def:ItemOID="IT.IE.IETESTCD" Comparator="EQ">
<CheckValue>EX03</CheckValue>
</RangeCheck>
</def:WhereClauseDef>
<def:WhereClauseDef OID="WC.IE.IEORRES.EX04">
<RangeCheck SoftHard="Soft" def:ItemOID="IT.IE.IETESTCD" Comparator="EQ">
<CheckValue>EX04</CheckValue>
</RangeCheck>
</def:WhereClauseDef>
<def:WhereClauseDef OID="WC.IE.IEORRES.EX05">
<RangeCheck SoftHard="Soft" def:ItemOID="IT.IE.IETESTCD" Comparator="EQ">
<CheckValue>EX05</CheckValue>
</RangeCheck>
</def:WhereClauseDef>
<def:WhereClauseDef OID="WC.IE.IEORRES.EX06">
<RangeCheck SoftHard="Soft" def:ItemOID="IT.IE.IETESTCD" Comparator="EQ">
<CheckValue>EX06</CheckValue>
</RangeCheck>
</def:WhereClauseDef>
<def:WhereClauseDef OID="WC.IE.IEORRES.EX07">
<RangeCheck SoftHard="Soft" def:ItemOID="IT.IE.IETESTCD" Comparator="EQ">
<CheckValue>EX07</CheckValue>
</RangeCheck>
</def:WhereClauseDef>
<def:WhereClauseDef OID="WC.IE.IEORRES.EX08">
<RangeCheck SoftHard="Soft" def:ItemOID="IT.IE.IETESTCD" Comparator="EQ">
<CheckValue>EX08</CheckValue>
</RangeCheck>
</def:WhereClauseDef>
<def:WhereClauseDef OID="WC.IE.IEORRES.EX09">
<RangeCheck SoftHard="Soft" def:ItemOID="IT.IE.IETESTCD" Comparator="EQ">
<CheckValue>EX09</CheckValue>
</RangeCheck>
</def:WhereClauseDef>
<def:WhereClauseDef OID="WC.IE.IEORRES.EX10">
<RangeCheck SoftHard="Soft" def:ItemOID="IT.IE.IETESTCD" Comparator="EQ">
<CheckValue>EX10</CheckValue>
</RangeCheck>
</def:WhereClauseDef>
<def:WhereClauseDef OID="WC.IE.IEORRES.EX11">
<RangeCheck SoftHard="Soft" def:ItemOID="IT.IE.IETESTCD" Comparator="EQ">
<CheckValue>EX11</CheckValue>
</RangeCheck>
</def:WhereClauseDef>
<def:WhereClauseDef OID="WC.IE.IEORRES.EX12">
<RangeCheck SoftHard="Soft" def:ItemOID="IT.IE.IETESTCD" Comparator="EQ">
<CheckValue>EX12</CheckValue>
</RangeCheck>
</def:WhereClauseDef>
<def:WhereClauseDef OID="WC.IE.IEORRES.EX13">
<RangeCheck SoftHard="Soft" def:ItemOID="IT.IE.IETESTCD" Comparator="EQ">
<CheckValue>EX13</CheckValue>
</RangeCheck>
</def:WhereClauseDef>
<def:WhereClauseDef OID="WC.IE.IEORRES.EX14">
<RangeCheck SoftHard="Soft" def:ItemOID="IT.IE.IETESTCD" Comparator="EQ">
<CheckValue>EX14</CheckValue>
</RangeCheck>
</def:WhereClauseDef>
<def:WhereClauseDef OID="WC.IE.IEORRES.IEDIA">
<RangeCheck SoftHard="Soft" def:ItemOID="IT.IE.IETESTCD" Comparator="EQ">
<CheckValue>IEDIA</CheckValue>
</RangeCheck>
</def:WhereClauseDef>
<def:WhereClauseDef OID="WC.IE.IEORRES.IEOC">
<RangeCheck SoftHard="Soft" def:ItemOID="IT.IE.IETESTCD" Comparator="EQ">
<CheckValue>IEOC</CheckValue>
</RangeCheck>
</def:WhereClauseDef>
<def:WhereClauseDef OID="WC.IE.IEORRES.IEOC1">
<RangeCheck SoftHard="Soft" def:ItemOID="IT.IE.IETESTCD" Comparator="EQ">
<CheckValue>IEOC1</CheckValue>
</RangeCheck>
</def:WhereClauseDef>
<def:WhereClauseDef OID="WC.IE.IEORRES.IEOC2">
<RangeCheck SoftHard="Soft" def:ItemOID="IT.IE.IETESTCD" Comparator="EQ">
<CheckValue>IEOC2</CheckValue>
</RangeCheck>
</def:WhereClauseDef>
<def:WhereClauseDef OID="WC.IE.IEORRES.IEOP">
<RangeCheck SoftHard="Soft" def:ItemOID="IT.IE.IETESTCD" Comparator="EQ">
<CheckValue>IEOP</CheckValue>
</RangeCheck>
</def:WhereClauseDef>
<def:WhereClauseDef OID="WC.IE.IEORRES.ELIGIBLE">
<RangeCheck SoftHard="Soft" def:ItemOID="IT.IE.IETESTCD" Comparator="EQ">
<CheckValue>ELIGIBLE</CheckValue>
</RangeCheck>
</def:WhereClauseDef>
<def:WhereClauseDef OID="WC.SUPPIE.QVAL.REASON">
<RangeCheck SoftHard="Soft" def:ItemOID="IT.SUPPIE.QNAM" Comparator="EQ">
<CheckValue>REASON</CheckValue>
</RangeCheck>
</def:WhereClauseDef>
<def:WhereClauseDef OID="WC.SUPPIE.QVAL.IEOC1_chk">
<RangeCheck SoftHard="Soft" def:ItemOID="IT.SUPPIE.QNAM" Comparator="EQ">
<CheckValue>IEOC1_chk</CheckValue>
</RangeCheck>
</def:WhereClauseDef>
<def:WhereClauseDef OID="WC.SUPPIE.QVAL.IEOC1_imp">
<RangeCheck SoftHard="Soft" def:ItemOID="IT.SUPPIE.QNAM" Comparator="EQ">
<CheckValue>IEOC1_imp</CheckValue>
</RangeCheck>
</def:WhereClauseDef>
<def:WhereClauseDef OID="WC.SUPPIE.QVAL.IEOC2_chk">
<RangeCheck SoftHard="Soft" def:ItemOID="IT.SUPPIE.QNAM" Comparator="EQ">
<CheckValue>IEOC2_chk</CheckValue>
</RangeCheck>
</def:WhereClauseDef>
<def:WhereClauseDef OID="WC.SUPPIE.QVAL.IEOC2_imp">
<RangeCheck SoftHard="Soft" def:ItemOID="IT.SUPPIE.QNAM" Comparator="EQ">
<CheckValue>IEOC2_imp</CheckValue>
</RangeCheck>
</def:WhereClauseDef>
<def:WhereClauseDef OID="WC.QS.QSORRES.SANDFDOS">
<RangeCheck SoftHard="Soft" def:ItemOID="IT.QS.QSTESTCD" Comparator="EQ">
<CheckValue>SANDFDOS</CheckValue>
</RangeCheck>
</def:WhereClauseDef>
<def:WhereClauseDef OID="WC.QS.QSORRES.SANDFDOD">
<RangeCheck SoftHard="Soft" def:ItemOID="IT.QS.QSTESTCD" Comparator="EQ">
<CheckValue>SANDFDOD</CheckValue>
</RangeCheck>
</def:WhereClauseDef>
<def:WhereClauseDef OID="WC.QS.QSORRES.SANDFDOU">
<RangeCheck SoftHard="Soft" def:ItemOID="IT.QS.QSTESTCD" Comparator="EQ">
<CheckValue>SANDFDOU</CheckValue>
</RangeCheck>
</def:WhereClauseDef>
<def:WhereClauseDef OID="WC.QS.QSORRES.SANDSDOS">
<RangeCheck SoftHard="Soft" def:ItemOID="IT.QS.QSTESTCD" Comparator="EQ">
<CheckValue>SANDSDOS</CheckValue>
</RangeCheck>
</def:WhereClauseDef>
<def:WhereClauseDef OID="WC.QS.QSORRES.SANDSDOD">
<RangeCheck SoftHard="Soft" def:ItemOID="IT.QS.QSTESTCD" Comparator="EQ">
<CheckValue>SANDSDOD</CheckValue>
</RangeCheck>
</def:WhereClauseDef>
<def:WhereClauseDef OID="WC.QS.QSORRES.SANDSDOU">
<RangeCheck SoftHard="Soft" def:ItemOID="IT.QS.QSTESTCD" Comparator="EQ">
<CheckValue>SANDSDOU</CheckValue>
</RangeCheck>
</def:WhereClauseDef>
<def:WhereClauseDef OID="WC.QS.QSORRES.SANDFNOS">
<RangeCheck SoftHard="Soft" def:ItemOID="IT.QS.QSTESTCD" Comparator="EQ">
<CheckValue>SANDFNOS</CheckValue>
</RangeCheck>
</def:WhereClauseDef>
<def:WhereClauseDef OID="WC.QS.QSORRES.SANDFNOD">
<RangeCheck SoftHard="Soft" def:ItemOID="IT.QS.QSTESTCD" Comparator="EQ">
<CheckValue>SANDFNOD</CheckValue>
</RangeCheck>
</def:WhereClauseDef>
<def:WhereClauseDef OID="WC.QS.QSORRES.SANDFNOU">
<RangeCheck SoftHard="Soft" def:ItemOID="IT.QS.QSTESTCD" Comparator="EQ">
<CheckValue>SANDFNOU</CheckValue>
</RangeCheck>
</def:WhereClauseDef>
<def:WhereClauseDef OID="WC.QS.QSORRES.SANDSNOS">
<RangeCheck SoftHard="Soft" def:ItemOID="IT.QS.QSTESTCD" Comparator="EQ">
<CheckValue>SANDSNOS</CheckValue>
</RangeCheck>
</def:WhereClauseDef>
<def:WhereClauseDef OID="WC.QS.QSORRES.SANDSNOD">
<RangeCheck SoftHard="Soft" def:ItemOID="IT.QS.QSTESTCD" Comparator="EQ">
<CheckValue>SANDSNOD</CheckValue>
</RangeCheck>
</def:WhereClauseDef>
<def:WhereClauseDef OID="WC.QS.QSORRES.SANDSNOU">
<RangeCheck SoftHard="Soft" def:ItemOID="IT.QS.QSTESTCD" Comparator="EQ">
<CheckValue>SANDSNOU</CheckValue>
</RangeCheck>
</def:WhereClauseDef>
<def:WhereClauseDef OID="WC.QS.QSORRES.GOSDODOS">
<RangeCheck SoftHard="Soft" def:ItemOID="IT.QS.QSTESTCD" Comparator="EQ">
<CheckValue>GOSDODOS</CheckValue>
</RangeCheck>
</def:WhereClauseDef>
<def:WhereClauseDef OID="WC.QS.QSORRES.GOSDODOD">
<RangeCheck SoftHard="Soft" def:ItemOID="IT.QS.QSTESTCD" Comparator="EQ">
<CheckValue>GOSDODOD</CheckValue>
</RangeCheck>
</def:WhereClauseDef>
<def:WhereClauseDef OID="WC.QS.QSORRES.GOSDODOU">
<RangeCheck SoftHard="Soft" def:ItemOID="IT.QS.QSTESTCD" Comparator="EQ">
<CheckValue>GOSDODOU</CheckValue>
</RangeCheck>
</def:WhereClauseDef>
<def:WhereClauseDef OID="WC.QS.QSORRES.GOSDDROS">
<RangeCheck SoftHard="Soft" def:ItemOID="IT.QS.QSTESTCD" Comparator="EQ">
<CheckValue>GOSDDROS</CheckValue>
</RangeCheck>
</def:WhereClauseDef>
<def:WhereClauseDef OID="WC.QS.QSORRES.GOSDDROD">
<RangeCheck SoftHard="Soft" def:ItemOID="IT.QS.QSTESTCD" Comparator="EQ">
<CheckValue>GOSDDROD</CheckValue>
</RangeCheck>
</def:WhereClauseDef>
<def:WhereClauseDef OID="WC.QS.QSORRES.GOSDDROU">
<RangeCheck SoftHard="Soft" def:ItemOID="IT.QS.QSTESTCD" Comparator="EQ">
<CheckValue>GOSDDROU</CheckValue>
</RangeCheck>
</def:WhereClauseDef>
<def:WhereClauseDef OID="WC.QS.QSORRES.GOSDEROS">
<RangeCheck SoftHard="Soft" def:ItemOID="IT.QS.QSTESTCD" Comparator="EQ">
<CheckValue>GOSDEROS</CheckValue>
</RangeCheck>
</def:WhereClauseDef>
<def:WhereClauseDef OID="WC.QS.QSORRES.GOSDEROD">
<RangeCheck SoftHard="Soft" def:ItemOID="IT.QS.QSTESTCD" Comparator="EQ">
<CheckValue>GOSDEROD</CheckValue>
</RangeCheck>
</def:WhereClauseDef>
<def:WhereClauseDef OID="WC.QS.QSORRES.GOSDEROU">
<RangeCheck SoftHard="Soft" def:ItemOID="IT.QS.QSTESTCD" Comparator="EQ">
<CheckValue>GOSDEROU</CheckValue>
</RangeCheck>
</def:WhereClauseDef>
<def:WhereClauseDef OID="WC.QS.QSORRES.GOSDSLOS">
<RangeCheck SoftHard="Soft" def:ItemOID="IT.QS.QSTESTCD" Comparator="EQ">
<CheckValue>GOSDSLOS</CheckValue>
</RangeCheck>
</def:WhereClauseDef>
<def:WhereClauseDef OID="WC.QS.QSORRES.GOSDSLOD">
<RangeCheck SoftHard="Soft" def:ItemOID="IT.QS.QSTESTCD" Comparator="EQ">
<CheckValue>GOSDSLOD</CheckValue>
</RangeCheck>
</def:WhereClauseDef>
<def:WhereClauseDef OID="WC.QS.QSORRES.GOSDSLOU">
<RangeCheck SoftHard="Soft" def:ItemOID="IT.QS.QSTESTCD" Comparator="EQ">
<CheckValue>GOSDSLOU</CheckValue>
</RangeCheck>
</def:WhereClauseDef>
<def:WhereClauseDef OID="WC.QS.QSORRES.GOSDBCOS">
<RangeCheck SoftHard="Soft" def:ItemOID="IT.QS.QSTESTCD" Comparator="EQ">
<CheckValue>GOSDBCOS</CheckValue>
</RangeCheck>
</def:WhereClauseDef>
<def:WhereClauseDef OID="WC.QS.QSORRES.GOSDBCOD">
<RangeCheck SoftHard="Soft" def:ItemOID="IT.QS.QSTESTCD" Comparator="EQ">
<CheckValue>GOSDBCOD</CheckValue>
</RangeCheck>
</def:WhereClauseDef>
<def:WhereClauseDef OID="WC.QS.QSORRES.GOSDBCOU">
<RangeCheck SoftHard="Soft" def:ItemOID="IT.QS.QSTESTCD" Comparator="EQ">
<CheckValue>GOSDBCOU</CheckValue>
</RangeCheck>
</def:WhereClauseDef>
<def:WhereClauseDef OID="WC.QS.QSORRES.GOSDBDOS">
<RangeCheck SoftHard="Soft" def:ItemOID="IT.QS.QSTESTCD" Comparator="EQ">
<CheckValue>GOSDBDOS</CheckValue>
</RangeCheck>
</def:WhereClauseDef>
<def:WhereClauseDef OID="WC.QS.QSORRES.GOSDBDOD">
<RangeCheck SoftHard="Soft" def:ItemOID="IT.QS.QSTESTCD" Comparator="EQ">
<CheckValue>GOSDBDOD</CheckValue>
</RangeCheck>
</def:WhereClauseDef>
<def:WhereClauseDef OID="WC.QS.QSORRES.GOSDBDOU">
<RangeCheck SoftHard="Soft" def:ItemOID="IT.QS.QSTESTCD" Comparator="EQ">
<CheckValue>GOSDBDOU</CheckValue>
</RangeCheck>
</def:WhereClauseDef>
<def:WhereClauseDef OID="WC.QS.QSORRES.GOSDSDIS">
<RangeCheck SoftHard="Soft" def:ItemOID="IT.QS.QSTESTCD" Comparator="EQ">
<CheckValue>GOSDSDIS</CheckValue>
</RangeCheck>
</def:WhereClauseDef>
<def:WhereClauseDef OID="WC.QS.QSORRES.SLWG01OD">
<RangeCheck SoftHard="Soft" def:ItemOID="IT.QS.QSTESTCD" Comparator="EQ">
<CheckValue>SLWG01OD</CheckValue>
</RangeCheck>
</def:WhereClauseDef>
<def:WhereClauseDef OID="WC.QS.QSORRES.SLWG01OS">
<RangeCheck SoftHard="Soft" def:ItemOID="IT.QS.QSTESTCD" Comparator="EQ">
<CheckValue>SLWG01OS</CheckValue>
</RangeCheck>
</def:WhereClauseDef>
<def:WhereClauseDef OID="WC.QS.QSORRES.SLWG01OU">
<RangeCheck SoftHard="Soft" def:ItemOID="IT.QS.QSTESTCD" Comparator="EQ">
<CheckValue>SLWG01OU</CheckValue>
</RangeCheck>
</def:WhereClauseDef>
<def:WhereClauseDef OID="WC.QS.QSORRES.SLWG02OD">
<RangeCheck SoftHard="Soft" def:ItemOID="IT.QS.QSTESTCD" Comparator="EQ">
<CheckValue>SLWG02OD</CheckValue>
</RangeCheck>
</def:WhereClauseDef>
<def:WhereClauseDef OID="WC.QS.QSORRES.SLWG02OS">
<RangeCheck SoftHard="Soft" def:ItemOID="IT.QS.QSTESTCD" Comparator="EQ">
<CheckValue>SLWG02OS</CheckValue>
</RangeCheck>
</def:WhereClauseDef>
<def:WhereClauseDef OID="WC.QS.QSORRES.SLWG02OU">
<RangeCheck SoftHard="Soft" def:ItemOID="IT.QS.QSTESTCD" Comparator="EQ">
<CheckValue>SLWG02OU</CheckValue>
</RangeCheck>
</def:WhereClauseDef>
<def:WhereClauseDef OID="WC.QS.QSORRES.SLWG03OD">
<RangeCheck SoftHard="Soft" def:ItemOID="IT.QS.QSTESTCD" Comparator="EQ">
<CheckValue>SLWG03OD</CheckValue>
</RangeCheck>
</def:WhereClauseDef>
<def:WhereClauseDef OID="WC.QS.QSORRES.SLWG03OS">
<RangeCheck SoftHard="Soft" def:ItemOID="IT.QS.QSTESTCD" Comparator="EQ">
<CheckValue>SLWG03OS</CheckValue>
</RangeCheck>
</def:WhereClauseDef>
<def:WhereClauseDef OID="WC.QS.QSORRES.SLWG03OU">
<RangeCheck SoftHard="Soft" def:ItemOID="IT.QS.QSTESTCD" Comparator="EQ">
<CheckValue>SLWG03OU</CheckValue>
</RangeCheck>
</def:WhereClauseDef>
<def:WhereClauseDef OID="WC.QS.QSORRES.SLWG04OD">
<RangeCheck SoftHard="Soft" def:ItemOID="IT.QS.QSTESTCD" Comparator="EQ">
<CheckValue>SLWG04OD</CheckValue>
</RangeCheck>
</def:WhereClauseDef>
<def:WhereClauseDef OID="WC.QS.QSORRES.SLWG04OS">
<RangeCheck SoftHard="Soft" def:ItemOID="IT.QS.QSTESTCD" Comparator="EQ">
<CheckValue>SLWG04OS</CheckValue>
</RangeCheck>
</def:WhereClauseDef>
<def:WhereClauseDef OID="WC.QS.QSORRES.SLWG04OU">
<RangeCheck SoftHard="Soft" def:ItemOID="IT.QS.QSTESTCD" Comparator="EQ">
<CheckValue>SLWG04OU</CheckValue>
</RangeCheck>
</def:WhereClauseDef>
<def:WhereClauseDef OID="WC.QS.QSORRES.SANDGDOS">
<RangeCheck SoftHard="Soft" def:ItemOID="IT.QS.QSTESTCD" Comparator="EQ">
<CheckValue>SANDGDOS</CheckValue>
</RangeCheck>
</def:WhereClauseDef>
<def:WhereClauseDef OID="WC.QS.QSORRES.SANDGDOD">
<RangeCheck SoftHard="Soft" def:ItemOID="IT.QS.QSTESTCD" Comparator="EQ">
<CheckValue>SANDGDOD</CheckValue>
</RangeCheck>
</def:WhereClauseDef>
<def:WhereClauseDef OID="WC.QS.QSORRES.SANDGDOU">
<RangeCheck SoftHard="Soft" def:ItemOID="IT.QS.QSTESTCD" Comparator="EQ">
<CheckValue>SANDGDOU</CheckValue>
</RangeCheck>
</def:WhereClauseDef>
<def:WhereClauseDef OID="WC.QS.QSORRES.SANDGNOS">
<RangeCheck SoftHard="Soft" def:ItemOID="IT.QS.QSTESTCD" Comparator="EQ">
<CheckValue>SANDGNOS</CheckValue>
</RangeCheck>
</def:WhereClauseDef>
<def:WhereClauseDef OID="WC.QS.QSORRES.SANDGNOD">
<RangeCheck SoftHard="Soft" def:ItemOID="IT.QS.QSTESTCD" Comparator="EQ">
<CheckValue>SANDGNOD</CheckValue>
</RangeCheck>
</def:WhereClauseDef>
<def:WhereClauseDef OID="WC.QS.QSORRES.SANDGNOU">
<RangeCheck SoftHard="Soft" def:ItemOID="IT.QS.QSTESTCD" Comparator="EQ">
<CheckValue>SANDGNOU</CheckValue>
</RangeCheck>
</def:WhereClauseDef>
<def:WhereClauseDef OID="WC.SUPPQS.QVAL.V2D_MSEVA">
<RangeCheck SoftHard="Soft" def:ItemOID="IT.SUPPQS.QNAM" Comparator="EQ">
<CheckValue>V2D_MSEVA</CheckValue>
</RangeCheck>
</def:WhereClauseDef>
<def:WhereClauseDef OID="WC.SUPPQS.QVAL.V2N_MSEVA">
<RangeCheck SoftHard="Soft" def:ItemOID="IT.SUPPQS.QNAM" Comparator="EQ">
<CheckValue>V2N_MSEVA</CheckValue>
</RangeCheck>
</def:WhereClauseDef>
<def:WhereClauseDef OID="WC.SUPPQS.QVAL.V2_GOSDS">
<RangeCheck SoftHard="Soft" def:ItemOID="IT.SUPPQS.QNAM" Comparator="EQ">
<CheckValue>V2_GOSDS</CheckValue>
</RangeCheck>
</def:WhereClauseDef>
<def:WhereClauseDef OID="WC.SUPPQS.QVAL.V4D_MSEVA">
<RangeCheck SoftHard="Soft" def:ItemOID="IT.SUPPQS.QNAM" Comparator="EQ">
<CheckValue>V4D_MSEVA</CheckValue>
</RangeCheck>
</def:WhereClauseDef>
<def:WhereClauseDef OID="WC.SUPPQS.QVAL.V4N_MSEVA">
<RangeCheck SoftHard="Soft" def:ItemOID="IT.SUPPQS.QNAM" Comparator="EQ">
<CheckValue>V4N_MSEVA</CheckValue>
</RangeCheck>
</def:WhereClauseDef>
<def:WhereClauseDef OID="WC.SUPPQS.QVAL.V4_GOSDS">
<RangeCheck SoftHard="Soft" def:ItemOID="IT.SUPPQS.QNAM" Comparator="EQ">
<CheckValue>V4_GOSDS</CheckValue>
</RangeCheck>
</def:WhereClauseDef>
<def:WhereClauseDef OID="WC.SUPPOE.QVAL.V1A1YN">
<RangeCheck SoftHard="Soft" def:ItemOID="IT.SUPPOE.QNAM" Comparator="EQ">
<CheckValue>V1A1YN</CheckValue>
</RangeCheck>
</def:WhereClauseDef>
<def:WhereClauseDef OID="WC.SUPPOE.QVAL.V1A1N">
<RangeCheck SoftHard="Soft" def:ItemOID="IT.SUPPOE.QNAM" Comparator="EQ">
<CheckValue>V1A1N</CheckValue>
</RangeCheck>
</def:WhereClauseDef>
<def:WhereClauseDef OID="WC.SUPPOE.QVAL.V1W_FPYN">
<RangeCheck SoftHard="Soft" def:ItemOID="IT.SUPPOE.QNAM" Comparator="EQ">
<CheckValue>V1W_FPYN</CheckValue>
</RangeCheck>
</def:WhereClauseDef>
<def:WhereClauseDef OID="WC.SUPPOE.QVAL.V1W_TSYNOD">
<RangeCheck SoftHard="Soft" def:ItemOID="IT.SUPPOE.QNAM" Comparator="EQ">
<CheckValue>V1W_TSYNOD</CheckValue>
</RangeCheck>
</def:WhereClauseDef>
<def:WhereClauseDef OID="WC.SUPPOE.QVAL.V1W_TSYNOS">
<RangeCheck SoftHard="Soft" def:ItemOID="IT.SUPPOE.QNAM" Comparator="EQ">
<CheckValue>V1W_TSYNOS</CheckValue>
</RangeCheck>
</def:WhereClauseDef>
<def:WhereClauseDef OID="WC.SUPPOE.QVAL.V1WKYN">
<RangeCheck SoftHard="Soft" def:ItemOID="IT.SUPPOE.QNAM" Comparator="EQ">
<CheckValue>V1WKYN</CheckValue>
</RangeCheck>
</def:WhereClauseDef>
<def:WhereClauseDef OID="WC.SUPPOE.QVAL.V1WKN">
<RangeCheck SoftHard="Soft" def:ItemOID="IT.SUPPOE.QNAM" Comparator="EQ">
<CheckValue>V1WKN</CheckValue>
</RangeCheck>
</def:WhereClauseDef>
<def:WhereClauseDef OID="WC.SUPPOE.QVAL.V1WK_OD">
<RangeCheck SoftHard="Soft" def:ItemOID="IT.SUPPOE.QNAM" Comparator="EQ">
<CheckValue>V1WK_OD</CheckValue>
</RangeCheck>
</def:WhereClauseDef>
<def:WhereClauseDef OID="WC.SUPPOE.QVAL.V1WK_OS">
<RangeCheck SoftHard="Soft" def:ItemOID="IT.SUPPOE.QNAM" Comparator="EQ">
<CheckValue>V1WK_OS</CheckValue>
</RangeCheck>
</def:WhereClauseDef>
<def:WhereClauseDef OID="WC.SUPPOE.QVAL.V1WEGSYN">
<RangeCheck SoftHard="Soft" def:ItemOID="IT.SUPPOE.QNAM" Comparator="EQ">
<CheckValue>V1WEGSYN</CheckValue>
</RangeCheck>
</def:WhereClauseDef>
<def:WhereClauseDef OID="WC.SUPPOE.QVAL.V1WEGSN">
<RangeCheck SoftHard="Soft" def:ItemOID="IT.SUPPOE.QNAM" Comparator="EQ">
<CheckValue>V1WEGSN</CheckValue>
</RangeCheck>
</def:WhereClauseDef>
<def:WhereClauseDef OID="WC.SUPPOE.QVAL.V1WO_FPYN">
<RangeCheck SoftHard="Soft" def:ItemOID="IT.SUPPOE.QNAM" Comparator="EQ">
<CheckValue>V1WO_FPYN</CheckValue>
</RangeCheck>
</def:WhereClauseDef>
<def:WhereClauseDef OID="WC.SUPPOE.QVAL.V1WO_TSYNOD">
<RangeCheck SoftHard="Soft" def:ItemOID="IT.SUPPOE.QNAM" Comparator="EQ">
<CheckValue>V1WO_TSYNOD</CheckValue>
</RangeCheck>
</def:WhereClauseDef>
<def:WhereClauseDef OID="WC.SUPPOE.QVAL.V1WO_TSYNOS">
<RangeCheck SoftHard="Soft" def:ItemOID="IT.SUPPOE.QNAM" Comparator="EQ">
<CheckValue>V1WO_TSYNOS</CheckValue>
</RangeCheck>
</def:WhereClauseDef>
<def:WhereClauseDef OID="WC.SUPPOE.QVAL.V1WOKYN">
<RangeCheck SoftHard="Soft" def:ItemOID="IT.SUPPOE.QNAM" Comparator="EQ">
<CheckValue>V1WOKYN</CheckValue>
</RangeCheck>
</def:WhereClauseDef>
<def:WhereClauseDef OID="WC.SUPPOE.QVAL.V1WOKN">
<RangeCheck SoftHard="Soft" def:ItemOID="IT.SUPPOE.QNAM" Comparator="EQ">
<CheckValue>V1WOKN</CheckValue>
</RangeCheck>
</def:WhereClauseDef>
<def:WhereClauseDef OID="WC.SUPPOE.QVAL.V1WOK_OD">
<RangeCheck SoftHard="Soft" def:ItemOID="IT.SUPPOE.QNAM" Comparator="EQ">
<CheckValue>V1WOK_OD</CheckValue>
</RangeCheck>
</def:WhereClauseDef>
<def:WhereClauseDef OID="WC.SUPPOE.QVAL.V1WOK_OS">
<RangeCheck SoftHard="Soft" def:ItemOID="IT.SUPPOE.QNAM" Comparator="EQ">
<CheckValue>V1WOK_OS</CheckValue>
</RangeCheck>
</def:WhereClauseDef>
<def:WhereClauseDef OID="WC.SUPPOE.QVAL.V1WOEGSYN">
<RangeCheck SoftHard="Soft" def:ItemOID="IT.SUPPOE.QNAM" Comparator="EQ">
<CheckValue>V1WOEGSYN</CheckValue>
</RangeCheck>
</def:WhereClauseDef>
<def:WhereClauseDef OID="WC.SUPPOE.QVAL.V1WOEGSN">
<RangeCheck SoftHard="Soft" def:ItemOID="IT.SUPPOE.QNAM" Comparator="EQ">
<CheckValue>V1WOEGSN</CheckValue>
</RangeCheck>
</def:WhereClauseDef>
<def:WhereClauseDef OID="WC.SUPPOE.QVAL.V1IPWO_YN">
<RangeCheck SoftHard="Soft" def:ItemOID="IT.SUPPOE.QNAM" Comparator="EQ">
<CheckValue>V1IPWO_YN</CheckValue>
</RangeCheck>
</def:WhereClauseDef>
<def:WhereClauseDef OID="WC.SUPPOE.QVAL.V1IPWO_N">
<RangeCheck SoftHard="Soft" def:ItemOID="IT.SUPPOE.QNAM" Comparator="EQ">
<CheckValue>V1IPWO_N</CheckValue>
</RangeCheck>
</def:WhereClauseDef>
<def:WhereClauseDef OID="WC.SUPPOE.QVAL.V1UFWO_YN">
<RangeCheck SoftHard="Soft" def:ItemOID="IT.SUPPOE.QNAM" Comparator="EQ">
<CheckValue>V1UFWO_YN</CheckValue>
</RangeCheck>
</def:WhereClauseDef>
<def:WhereClauseDef OID="WC.SUPPOE.QVAL.V1UFWO_N">
<RangeCheck SoftHard="Soft" def:ItemOID="IT.SUPPOE.QNAM" Comparator="EQ">
<CheckValue>V1UFWO_N</CheckValue>
</RangeCheck>
</def:WhereClauseDef>
<def:WhereClauseDef OID="WC.SUPPOE.QVAL.V1A2YN">
<RangeCheck SoftHard="Soft" def:ItemOID="IT.SUPPOE.QNAM" Comparator="EQ">
<CheckValue>V1A2YN</CheckValue>
</RangeCheck>
</def:WhereClauseDef>
<def:WhereClauseDef OID="WC.SUPPOE.QVAL.V1A2N">
<RangeCheck SoftHard="Soft" def:ItemOID="IT.SUPPOE.QNAM" Comparator="EQ">
<CheckValue>V1A2N</CheckValue>
</RangeCheck>
</def:WhereClauseDef>
<def:WhereClauseDef OID="WC.SUPPOE.QVAL.V3A1YN">
<RangeCheck SoftHard="Soft" def:ItemOID="IT.SUPPOE.QNAM" Comparator="EQ">
<CheckValue>V3A1YN</CheckValue>
</RangeCheck>
</def:WhereClauseDef>
<def:WhereClauseDef OID="WC.SUPPOE.QVAL.V3A1N">
<RangeCheck SoftHard="Soft" def:ItemOID="IT.SUPPOE.QNAM" Comparator="EQ">
<CheckValue>V3A1N</CheckValue>
</RangeCheck>
</def:WhereClauseDef>
<def:WhereClauseDef OID="WC.SUPPOE.QVAL.V3W_FPYN">
<RangeCheck SoftHard="Soft" def:ItemOID="IT.SUPPOE.QNAM" Comparator="EQ">
<CheckValue>V3W_FPYN</CheckValue>
</RangeCheck>
</def:WhereClauseDef>
<def:WhereClauseDef OID="WC.SUPPOE.QVAL.V3W_TSYNOD">
<RangeCheck SoftHard="Soft" def:ItemOID="IT.SUPPOE.QNAM" Comparator="EQ">
<CheckValue>V3W_TSYNOD</CheckValue>
</RangeCheck>
</def:WhereClauseDef>
<def:WhereClauseDef OID="WC.SUPPOE.QVAL.V3W_TSYNOS">
<RangeCheck SoftHard="Soft" def:ItemOID="IT.SUPPOE.QNAM" Comparator="EQ">
<CheckValue>V3W_TSYNOS</CheckValue>
</RangeCheck>
</def:WhereClauseDef>
<def:WhereClauseDef OID="WC.SUPPOE.QVAL.V3WKYN">
<RangeCheck SoftHard="Soft" def:ItemOID="IT.SUPPOE.QNAM" Comparator="EQ">
<CheckValue>V3WKYN</CheckValue>
</RangeCheck>
</def:WhereClauseDef>
<def:WhereClauseDef OID="WC.SUPPOE.QVAL.V3WKN">
<RangeCheck SoftHard="Soft" def:ItemOID="IT.SUPPOE.QNAM" Comparator="EQ">
<CheckValue>V3WKN</CheckValue>
</RangeCheck>
</def:WhereClauseDef>
<def:WhereClauseDef OID="WC.SUPPOE.QVAL.V3WK_OD">
<RangeCheck SoftHard="Soft" def:ItemOID="IT.SUPPOE.QNAM" Comparator="EQ">
<CheckValue>V3WK_OD</CheckValue>
</RangeCheck>
</def:WhereClauseDef>
<def:WhereClauseDef OID="WC.SUPPOE.QVAL.V3WK_OS">
<RangeCheck SoftHard="Soft" def:ItemOID="IT.SUPPOE.QNAM" Comparator="EQ">
<CheckValue>V3WK_OS</CheckValue>
</RangeCheck>
</def:WhereClauseDef>
<def:WhereClauseDef OID="WC.SUPPOE.QVAL.V3WEGSYN">
<RangeCheck SoftHard="Soft" def:ItemOID="IT.SUPPOE.QNAM" Comparator="EQ">
<CheckValue>V3WEGSYN</CheckValue>
</RangeCheck>
</def:WhereClauseDef>
<def:WhereClauseDef OID="WC.SUPPOE.QVAL.V3WEGSN">
<RangeCheck SoftHard="Soft" def:ItemOID="IT.SUPPOE.QNAM" Comparator="EQ">
<CheckValue>V3WEGSN</CheckValue>
</RangeCheck>
</def:WhereClauseDef>
<def:WhereClauseDef OID="WC.SUPPOE.QVAL.V3WO_FPYN">
<RangeCheck SoftHard="Soft" def:ItemOID="IT.SUPPOE.QNAM" Comparator="EQ">
<CheckValue>V3WO_FPYN</CheckValue>
</RangeCheck>
</def:WhereClauseDef>
<def:WhereClauseDef OID="WC.SUPPOE.QVAL.V3WO_TSYNOD">
<RangeCheck SoftHard="Soft" def:ItemOID="IT.SUPPOE.QNAM" Comparator="EQ">
<CheckValue>V3WO_TSYNOD</CheckValue>
</RangeCheck>
</def:WhereClauseDef>
<def:WhereClauseDef OID="WC.SUPPOE.QVAL.V3WO_TSYNOS">
<RangeCheck SoftHard="Soft" def:ItemOID="IT.SUPPOE.QNAM" Comparator="EQ">
<CheckValue>V3WO_TSYNOS</CheckValue>
</RangeCheck>
</def:WhereClauseDef>
<def:WhereClauseDef OID="WC.SUPPOE.QVAL.V3WOKYN">
<RangeCheck SoftHard="Soft" def:ItemOID="IT.SUPPOE.QNAM" Comparator="EQ">
<CheckValue>V3WOKYN</CheckValue>
</RangeCheck>
</def:WhereClauseDef>
<def:WhereClauseDef OID="WC.SUPPOE.QVAL.V3WOKN">
<RangeCheck SoftHard="Soft" def:ItemOID="IT.SUPPOE.QNAM" Comparator="EQ">
<CheckValue>V3WOKN</CheckValue>
</RangeCheck>
</def:WhereClauseDef>
<def:WhereClauseDef OID="WC.SUPPOE.QVAL.V3WOK_OD">
<RangeCheck SoftHard="Soft" def:ItemOID="IT.SUPPOE.QNAM" Comparator="EQ">
<CheckValue>V3WOK_OD</CheckValue>
</RangeCheck>
</def:WhereClauseDef>
<def:WhereClauseDef OID="WC.SUPPOE.QVAL.V3WOK_OS">
<RangeCheck SoftHard="Soft" def:ItemOID="IT.SUPPOE.QNAM" Comparator="EQ">
<CheckValue>V3WOK_OS</CheckValue>
</RangeCheck>
</def:WhereClauseDef>
<def:WhereClauseDef OID="WC.SUPPOE.QVAL.V3WOEGSYN">
<RangeCheck SoftHard="Soft" def:ItemOID="IT.SUPPOE.QNAM" Comparator="EQ">
<CheckValue>V3WOEGSYN</CheckValue>
</RangeCheck>
</def:WhereClauseDef>
<def:WhereClauseDef OID="WC.SUPPOE.QVAL.V3WOEGSN">
<RangeCheck SoftHard="Soft" def:ItemOID="IT.SUPPOE.QNAM" Comparator="EQ">
<CheckValue>V3WOEGSN</CheckValue>
</RangeCheck>
</def:WhereClauseDef>
<def:WhereClauseDef OID="WC.SUPPOE.QVAL.V3IPWO_YN">
<RangeCheck SoftHard="Soft" def:ItemOID="IT.SUPPOE.QNAM" Comparator="EQ">
<CheckValue>V3IPWO_YN</CheckValue>
</RangeCheck>
</def:WhereClauseDef>
<def:WhereClauseDef OID="WC.SUPPOE.QVAL.V3IPWO_N">
<RangeCheck SoftHard="Soft" def:ItemOID="IT.SUPPOE.QNAM" Comparator="EQ">
<CheckValue>V3IPWO_N</CheckValue>
</RangeCheck>
</def:WhereClauseDef>
<def:WhereClauseDef OID="WC.SUPPOE.QVAL.V3UFWO_YN">
<RangeCheck SoftHard="Soft" def:ItemOID="IT.SUPPOE.QNAM" Comparator="EQ">
<CheckValue>V3UFWO_YN</CheckValue>
</RangeCheck>
</def:WhereClauseDef>
<def:WhereClauseDef OID="WC.SUPPOE.QVAL.V3UFWO_N">
<RangeCheck SoftHard="Soft" def:ItemOID="IT.SUPPOE.QNAM" Comparator="EQ">
<CheckValue>V3UFWO_N</CheckValue>
</RangeCheck>
</def:WhereClauseDef>
<def:WhereClauseDef OID="WC.SUPPOE.QVAL.V3A2YN">
<RangeCheck SoftHard="Soft" def:ItemOID="IT.SUPPOE.QNAM" Comparator="EQ">
<CheckValue>V3A2YN</CheckValue>
</RangeCheck>
</def:WhereClauseDef>
<def:WhereClauseDef OID="WC.SUPPOE.QVAL.V3A2N">
<RangeCheck SoftHard="Soft" def:ItemOID="IT.SUPPOE.QNAM" Comparator="EQ">
<CheckValue>V3A2N</CheckValue>
</RangeCheck>
</def:WhereClauseDef>
<def:WhereClauseDef OID="WC.SUPPOE.QVAL.V5A1YN">
<RangeCheck SoftHard="Soft" def:ItemOID="IT.SUPPOE.QNAM" Comparator="EQ">
<CheckValue>V5A1YN</CheckValue>
</RangeCheck>
</def:WhereClauseDef>
<def:WhereClauseDef OID="WC.SUPPOE.QVAL.V5A1N">
<RangeCheck SoftHard="Soft" def:ItemOID="IT.SUPPOE.QNAM" Comparator="EQ">
<CheckValue>V5A1N</CheckValue>
</RangeCheck>
</def:WhereClauseDef>
<def:WhereClauseDef OID="WC.SUPPOE.QVAL.V5W_FPYN">
<RangeCheck SoftHard="Soft" def:ItemOID="IT.SUPPOE.QNAM" Comparator="EQ">
<CheckValue>V5W_FPYN</CheckValue>
</RangeCheck>
</def:WhereClauseDef>
<def:WhereClauseDef OID="WC.SUPPOE.QVAL.V5W_TSYNOD">
<RangeCheck SoftHard="Soft" def:ItemOID="IT.SUPPOE.QNAM" Comparator="EQ">
<CheckValue>V5W_TSYNOD</CheckValue>
</RangeCheck>
</def:WhereClauseDef>
<def:WhereClauseDef OID="WC.SUPPOE.QVAL.V5W_TSYNOS">
<RangeCheck SoftHard="Soft" def:ItemOID="IT.SUPPOE.QNAM" Comparator="EQ">
<CheckValue>V5W_TSYNOS</CheckValue>
</RangeCheck>
</def:WhereClauseDef>
<def:WhereClauseDef OID="WC.SUPPOE.QVAL.V5WKYN">
<RangeCheck SoftHard="Soft" def:ItemOID="IT.SUPPOE.QNAM" Comparator="EQ">
<CheckValue>V5WKYN</CheckValue>
</RangeCheck>
</def:WhereClauseDef>
<def:WhereClauseDef OID="WC.SUPPOE.QVAL.V5WKN">
<RangeCheck SoftHard="Soft" def:ItemOID="IT.SUPPOE.QNAM" Comparator="EQ">
<CheckValue>V5WKN</CheckValue>
</RangeCheck>
</def:WhereClauseDef>
<def:WhereClauseDef OID="WC.SUPPOE.QVAL.V5WK_OD">
<RangeCheck SoftHard="Soft" def:ItemOID="IT.SUPPOE.QNAM" Comparator="EQ">
<CheckValue>V5WK_OD</CheckValue>
</RangeCheck>
</def:WhereClauseDef>
<def:WhereClauseDef OID="WC.SUPPOE.QVAL.V5WK_OS">
<RangeCheck SoftHard="Soft" def:ItemOID="IT.SUPPOE.QNAM" Comparator="EQ">
<CheckValue>V5WK_OS</CheckValue>
</RangeCheck>
</def:WhereClauseDef>
<def:WhereClauseDef OID="WC.SUPPOE.QVAL.V5WEGSYN">
<RangeCheck SoftHard="Soft" def:ItemOID="IT.SUPPOE.QNAM" Comparator="EQ">
<CheckValue>V5WEGSYN</CheckValue>
</RangeCheck>
</def:WhereClauseDef>
<def:WhereClauseDef OID="WC.SUPPOE.QVAL.V5WEGSN">
<RangeCheck SoftHard="Soft" def:ItemOID="IT.SUPPOE.QNAM" Comparator="EQ">
<CheckValue>V5WEGSN</CheckValue>
</RangeCheck>
</def:WhereClauseDef>
<def:WhereClauseDef OID="WC.SUPPOE.QVAL.V5WO_FPYN">
<RangeCheck SoftHard="Soft" def:ItemOID="IT.SUPPOE.QNAM" Comparator="EQ">
<CheckValue>V5WO_FPYN</CheckValue>
</RangeCheck>
</def:WhereClauseDef>
<def:WhereClauseDef OID="WC.SUPPOE.QVAL.V5WO_TSYNOD">
<RangeCheck SoftHard="Soft" def:ItemOID="IT.SUPPOE.QNAM" Comparator="EQ">
<CheckValue>V5WO_TSYNOD</CheckValue>
</RangeCheck>
</def:WhereClauseDef>
<def:WhereClauseDef OID="WC.SUPPOE.QVAL.V5WO_TSYNOS">
<RangeCheck SoftHard="Soft" def:ItemOID="IT.SUPPOE.QNAM" Comparator="EQ">
<CheckValue>V5WO_TSYNOS</CheckValue>
</RangeCheck>
</def:WhereClauseDef>
<def:WhereClauseDef OID="WC.SUPPOE.QVAL.V5WOKYN">
<RangeCheck SoftHard="Soft" def:ItemOID="IT.SUPPOE.QNAM" Comparator="EQ">
<CheckValue>V5WOKYN</CheckValue>
</RangeCheck>
</def:WhereClauseDef>
<def:WhereClauseDef OID="WC.SUPPOE.QVAL.V5WOKN">
<RangeCheck SoftHard="Soft" def:ItemOID="IT.SUPPOE.QNAM" Comparator="EQ">
<CheckValue>V5WOKN</CheckValue>
</RangeCheck>
</def:WhereClauseDef>
<def:WhereClauseDef OID="WC.SUPPOE.QVAL.V5WOK_OD">
<RangeCheck SoftHard="Soft" def:ItemOID="IT.SUPPOE.QNAM" Comparator="EQ">
<CheckValue>V5WOK_OD</CheckValue>
</RangeCheck>
</def:WhereClauseDef>
<def:WhereClauseDef OID="WC.SUPPOE.QVAL.V5WOK_OS">
<RangeCheck SoftHard="Soft" def:ItemOID="IT.SUPPOE.QNAM" Comparator="EQ">
<CheckValue>V5WOK_OS</CheckValue>
</RangeCheck>
</def:WhereClauseDef>
<def:WhereClauseDef OID="WC.SUPPOE.QVAL.V5WOEGSYN">
<RangeCheck SoftHard="Soft" def:ItemOID="IT.SUPPOE.QNAM" Comparator="EQ">
<CheckValue>V5WOEGSYN</CheckValue>
</RangeCheck>
</def:WhereClauseDef>
<def:WhereClauseDef OID="WC.SUPPOE.QVAL.V5WOEGSN">
<RangeCheck SoftHard="Soft" def:ItemOID="IT.SUPPOE.QNAM" Comparator="EQ">
<CheckValue>V5WOEGSN</CheckValue>
</RangeCheck>
</def:WhereClauseDef>
<def:WhereClauseDef OID="WC.SUPPOE.QVAL.V5IPWO_YN">
<RangeCheck SoftHard="Soft" def:ItemOID="IT.SUPPOE.QNAM" Comparator="EQ">
<CheckValue>V5IPWO_YN</CheckValue>
</RangeCheck>
</def:WhereClauseDef>
<def:WhereClauseDef OID="WC.SUPPOE.QVAL.V5IPWO_N">
<RangeCheck SoftHard="Soft" def:ItemOID="IT.SUPPOE.QNAM" Comparator="EQ">
<CheckValue>V5IPWO_N</CheckValue>
</RangeCheck>
</def:WhereClauseDef>
<def:WhereClauseDef OID="WC.SUPPOE.QVAL.V5UFWO_YN">
<RangeCheck SoftHard="Soft" def:ItemOID="IT.SUPPOE.QNAM" Comparator="EQ">
<CheckValue>V5UFWO_YN</CheckValue>
</RangeCheck>
</def:WhereClauseDef>
<def:WhereClauseDef OID="WC.SUPPOE.QVAL.V5UFWO_N">
<RangeCheck SoftHard="Soft" def:ItemOID="IT.SUPPOE.QNAM" Comparator="EQ">
<CheckValue>V5UFWO_N</CheckValue>
</RangeCheck>
</def:WhereClauseDef>
<def:WhereClauseDef OID="WC.SUPPOE.QVAL.V5A2YN">
<RangeCheck SoftHard="Soft" def:ItemOID="IT.SUPPOE.QNAM" Comparator="EQ">
<CheckValue>V5A2YN</CheckValue>
</RangeCheck>
</def:WhereClauseDef>
<def:WhereClauseDef OID="WC.SUPPOE.QVAL.V5A2N">
<RangeCheck SoftHard="Soft" def:ItemOID="IT.SUPPOE.QNAM" Comparator="EQ">
<CheckValue>V5A2N</CheckValue>
</RangeCheck>
</def:WhereClauseDef>
<def:WhereClauseDef OID="WC.SUPPOE.QVAL.V6A1YN">
<RangeCheck SoftHard="Soft" def:ItemOID="IT.SUPPOE.QNAM" Comparator="EQ">
<CheckValue>V6A1YN</CheckValue>
</RangeCheck>
</def:WhereClauseDef>
<def:WhereClauseDef OID="WC.SUPPOE.QVAL.V6A1N">
<RangeCheck SoftHard="Soft" def:ItemOID="IT.SUPPOE.QNAM" Comparator="EQ">
<CheckValue>V6A1N</CheckValue>
</RangeCheck>
</def:WhereClauseDef>
<def:WhereClauseDef OID="WC.SUPPOE.QVAL.V6W_FPYN">
<RangeCheck SoftHard="Soft" def:ItemOID="IT.SUPPOE.QNAM" Comparator="EQ">
<CheckValue>V6W_FPYN</CheckValue>
</RangeCheck>
</def:WhereClauseDef>
<def:WhereClauseDef OID="WC.SUPPOE.QVAL.V6W_TSYNOD">
<RangeCheck SoftHard="Soft" def:ItemOID="IT.SUPPOE.QNAM" Comparator="EQ">
<CheckValue>V6W_TSYNOD</CheckValue>
</RangeCheck>
</def:WhereClauseDef>
<def:WhereClauseDef OID="WC.SUPPOE.QVAL.V6W_TSYNOS">
<RangeCheck SoftHard="Soft" def:ItemOID="IT.SUPPOE.QNAM" Comparator="EQ">
<CheckValue>V6W_TSYNOS</CheckValue>
</RangeCheck>
</def:WhereClauseDef>
<def:WhereClauseDef OID="WC.SUPPOE.QVAL.V6WKYN">
<RangeCheck SoftHard="Soft" def:ItemOID="IT.SUPPOE.QNAM" Comparator="EQ">
<CheckValue>V6WKYN</CheckValue>
</RangeCheck>
</def:WhereClauseDef>
<def:WhereClauseDef OID="WC.SUPPOE.QVAL.V6WKN">
<RangeCheck SoftHard="Soft" def:ItemOID="IT.SUPPOE.QNAM" Comparator="EQ">
<CheckValue>V6WKN</CheckValue>
</RangeCheck>
</def:WhereClauseDef>
<def:WhereClauseDef OID="WC.SUPPOE.QVAL.V6WK_OD">
<RangeCheck SoftHard="Soft" def:ItemOID="IT.SUPPOE.QNAM" Comparator="EQ">
<CheckValue>V6WK_OD</CheckValue>
</RangeCheck>
</def:WhereClauseDef>
<def:WhereClauseDef OID="WC.SUPPOE.QVAL.V6WK_OS">
<RangeCheck SoftHard="Soft" def:ItemOID="IT.SUPPOE.QNAM" Comparator="EQ">
<CheckValue>V6WK_OS</CheckValue>
</RangeCheck>
</def:WhereClauseDef>
<def:WhereClauseDef OID="WC.SUPPOE.QVAL.V6WEGSYN">
<RangeCheck SoftHard="Soft" def:ItemOID="IT.SUPPOE.QNAM" Comparator="EQ">
<CheckValue>V6WEGSYN</CheckValue>
</RangeCheck>
</def:WhereClauseDef>
<def:WhereClauseDef OID="WC.SUPPOE.QVAL.V6WEGSN">
<RangeCheck SoftHard="Soft" def:ItemOID="IT.SUPPOE.QNAM" Comparator="EQ">
<CheckValue>V6WEGSN</CheckValue>
</RangeCheck>
</def:WhereClauseDef>
<def:WhereClauseDef OID="WC.SUPPOE.QVAL.V6WO_FPYN">
<RangeCheck SoftHard="Soft" def:ItemOID="IT.SUPPOE.QNAM" Comparator="EQ">
<CheckValue>V6WO_FPYN</CheckValue>
</RangeCheck>
</def:WhereClauseDef>
<def:WhereClauseDef OID="WC.SUPPOE.QVAL.V6WO_TSYNOD">
<RangeCheck SoftHard="Soft" def:ItemOID="IT.SUPPOE.QNAM" Comparator="EQ">
<CheckValue>V6WO_TSYNOD</CheckValue>
</RangeCheck>
</def:WhereClauseDef>
<def:WhereClauseDef OID="WC.SUPPOE.QVAL.V6WO_TSYNOS">
<RangeCheck SoftHard="Soft" def:ItemOID="IT.SUPPOE.QNAM" Comparator="EQ">
<CheckValue>V6WO_TSYNOS</CheckValue>
</RangeCheck>
</def:WhereClauseDef>
<def:WhereClauseDef OID="WC.SUPPOE.QVAL.V6WOKYN">
<RangeCheck SoftHard="Soft" def:ItemOID="IT.SUPPOE.QNAM" Comparator="EQ">
<CheckValue>V6WOKYN</CheckValue>
</RangeCheck>
</def:WhereClauseDef>
<def:WhereClauseDef OID="WC.SUPPOE.QVAL.V6WOKN">
<RangeCheck SoftHard="Soft" def:ItemOID="IT.SUPPOE.QNAM" Comparator="EQ">
<CheckValue>V6WOKN</CheckValue>
</RangeCheck>
</def:WhereClauseDef>
<def:WhereClauseDef OID="WC.SUPPOE.QVAL.V6WOK_OD">
<RangeCheck SoftHard="Soft" def:ItemOID="IT.SUPPOE.QNAM" Comparator="EQ">
<CheckValue>V6WOK_OD</CheckValue>
</RangeCheck>
</def:WhereClauseDef>
<def:WhereClauseDef OID="WC.SUPPOE.QVAL.V6WOK_OS">
<RangeCheck SoftHard="Soft" def:ItemOID="IT.SUPPOE.QNAM" Comparator="EQ">
<CheckValue>V6WOK_OS</CheckValue>
</RangeCheck>
</def:WhereClauseDef>
<def:WhereClauseDef OID="WC.SUPPOE.QVAL.V6WOEGSYN">
<RangeCheck SoftHard="Soft" def:ItemOID="IT.SUPPOE.QNAM" Comparator="EQ">
<CheckValue>V6WOEGSYN</CheckValue>
</RangeCheck>
</def:WhereClauseDef>
<def:WhereClauseDef OID="WC.SUPPOE.QVAL.V6WOEGSN">
<RangeCheck SoftHard="Soft" def:ItemOID="IT.SUPPOE.QNAM" Comparator="EQ">
<CheckValue>V6WOEGSN</CheckValue>
</RangeCheck>
</def:WhereClauseDef>
<def:WhereClauseDef OID="WC.SUPPOE.QVAL.V6IPWO_YN">
<RangeCheck SoftHard="Soft" def:ItemOID="IT.SUPPOE.QNAM" Comparator="EQ">
<CheckValue>V6IPWO_YN</CheckValue>
</RangeCheck>
</def:WhereClauseDef>
<def:WhereClauseDef OID="WC.SUPPOE.QVAL.V6IPWO_N">
<RangeCheck SoftHard="Soft" def:ItemOID="IT.SUPPOE.QNAM" Comparator="EQ">
<CheckValue>V6IPWO_N</CheckValue>
</RangeCheck>
</def:WhereClauseDef>
<def:WhereClauseDef OID="WC.SUPPOE.QVAL.V6UFWO_YN">
<RangeCheck SoftHard="Soft" def:ItemOID="IT.SUPPOE.QNAM" Comparator="EQ">
<CheckValue>V6UFWO_YN</CheckValue>
</RangeCheck>
</def:WhereClauseDef>
<def:WhereClauseDef OID="WC.SUPPOE.QVAL.V6UFWO_N">
<RangeCheck SoftHard="Soft" def:ItemOID="IT.SUPPOE.QNAM" Comparator="EQ">
<CheckValue>V6UFWO_N</CheckValue>
</RangeCheck>
</def:WhereClauseDef>
<def:WhereClauseDef OID="WC.SUPPOE.QVAL.V6A2YN">
<RangeCheck SoftHard="Soft" def:ItemOID="IT.SUPPOE.QNAM" Comparator="EQ">
<CheckValue>V6A2YN</CheckValue>
</RangeCheck>
</def:WhereClauseDef>
<def:WhereClauseDef OID="WC.SUPPOE.QVAL.V6A2N">
<RangeCheck SoftHard="Soft" def:ItemOID="IT.SUPPOE.QNAM" Comparator="EQ">
<CheckValue>V6A2N</CheckValue>
</RangeCheck>
</def:WhereClauseDef>
<def:WhereClauseDef OID="WC.SUPPOE.QVAL.V7A1YN">
<RangeCheck SoftHard="Soft" def:ItemOID="IT.SUPPOE.QNAM" Comparator="EQ">
<CheckValue>V7A1YN</CheckValue>
</RangeCheck>
</def:WhereClauseDef>
<def:WhereClauseDef OID="WC.SUPPOE.QVAL.V7A1N">
<RangeCheck SoftHard="Soft" def:ItemOID="IT.SUPPOE.QNAM" Comparator="EQ">
<CheckValue>V7A1N</CheckValue>
</RangeCheck>
</def:WhereClauseDef>
<def:WhereClauseDef OID="WC.SUPPOE.QVAL.V7W_FPYN">
<RangeCheck SoftHard="Soft" def:ItemOID="IT.SUPPOE.QNAM" Comparator="EQ">
<CheckValue>V7W_FPYN</CheckValue>
</RangeCheck>
</def:WhereClauseDef>
<def:WhereClauseDef OID="WC.SUPPOE.QVAL.V7W_TSYNOD">
<RangeCheck SoftHard="Soft" def:ItemOID="IT.SUPPOE.QNAM" Comparator="EQ">
<CheckValue>V7W_TSYNOD</CheckValue>
</RangeCheck>
</def:WhereClauseDef>
<def:WhereClauseDef OID="WC.SUPPOE.QVAL.V7W_TSYNOS">
<RangeCheck SoftHard="Soft" def:ItemOID="IT.SUPPOE.QNAM" Comparator="EQ">
<CheckValue>V7W_TSYNOS</CheckValue>
</RangeCheck>
</def:WhereClauseDef>
<def:WhereClauseDef OID="WC.SUPPOE.QVAL.V7WKYN">
<RangeCheck SoftHard="Soft" def:ItemOID="IT.SUPPOE.QNAM" Comparator="EQ">
<CheckValue>V7WKYN</CheckValue>
</RangeCheck>
</def:WhereClauseDef>
<def:WhereClauseDef OID="WC.SUPPOE.QVAL.V7WKN">
<RangeCheck SoftHard="Soft" def:ItemOID="IT.SUPPOE.QNAM" Comparator="EQ">
<CheckValue>V7WKN</CheckValue>
</RangeCheck>
</def:WhereClauseDef>
<def:WhereClauseDef OID="WC.SUPPOE.QVAL.V7WK_OD">
<RangeCheck SoftHard="Soft" def:ItemOID="IT.SUPPOE.QNAM" Comparator="EQ">
<CheckValue>V7WK_OD</CheckValue>
</RangeCheck>
</def:WhereClauseDef>
<def:WhereClauseDef OID="WC.SUPPOE.QVAL.V7WK_OS">
<RangeCheck SoftHard="Soft" def:ItemOID="IT.SUPPOE.QNAM" Comparator="EQ">
<CheckValue>V7WK_OS</CheckValue>
</RangeCheck>
</def:WhereClauseDef>
<def:WhereClauseDef OID="WC.SUPPOE.QVAL.V7WEGSYN">
<RangeCheck SoftHard="Soft" def:ItemOID="IT.SUPPOE.QNAM" Comparator="EQ">
<CheckValue>V7WEGSYN</CheckValue>
</RangeCheck>
</def:WhereClauseDef>
<def:WhereClauseDef OID="WC.SUPPOE.QVAL.V7WEGSN">
<RangeCheck SoftHard="Soft" def:ItemOID="IT.SUPPOE.QNAM" Comparator="EQ">
<CheckValue>V7WEGSN</CheckValue>
</RangeCheck>
</def:WhereClauseDef>
<def:WhereClauseDef OID="WC.SUPPOE.QVAL.V7WO_FPYN">
<RangeCheck SoftHard="Soft" def:ItemOID="IT.SUPPOE.QNAM" Comparator="EQ">
<CheckValue>V7WO_FPYN</CheckValue>
</RangeCheck>
</def:WhereClauseDef>
<def:WhereClauseDef OID="WC.SUPPOE.QVAL.V7WO_TSYNOD">
<RangeCheck SoftHard="Soft" def:ItemOID="IT.SUPPOE.QNAM" Comparator="EQ">
<CheckValue>V7WO_TSYNOD</CheckValue>
</RangeCheck>
</def:WhereClauseDef>
<def:WhereClauseDef OID="WC.SUPPOE.QVAL.V7WO_TSYNOS">
<RangeCheck SoftHard="Soft" def:ItemOID="IT.SUPPOE.QNAM" Comparator="EQ">
<CheckValue>V7WO_TSYNOS</CheckValue>
</RangeCheck>
</def:WhereClauseDef>
<def:WhereClauseDef OID="WC.SUPPOE.QVAL.V7WOKYN">
<RangeCheck SoftHard="Soft" def:ItemOID="IT.SUPPOE.QNAM" Comparator="EQ">
<CheckValue>V7WOKYN</CheckValue>
</RangeCheck>
</def:WhereClauseDef>
<def:WhereClauseDef OID="WC.SUPPOE.QVAL.V7WOKN">
<RangeCheck SoftHard="Soft" def:ItemOID="IT.SUPPOE.QNAM" Comparator="EQ">
<CheckValue>V7WOKN</CheckValue>
</RangeCheck>
</def:WhereClauseDef>
<def:WhereClauseDef OID="WC.SUPPOE.QVAL.V7WOK_OD">
<RangeCheck SoftHard="Soft" def:ItemOID="IT.SUPPOE.QNAM" Comparator="EQ">
<CheckValue>V7WOK_OD</CheckValue>
</RangeCheck>
</def:WhereClauseDef>
<def:WhereClauseDef OID="WC.SUPPOE.QVAL.V7WOK_OS">
<RangeCheck SoftHard="Soft" def:ItemOID="IT.SUPPOE.QNAM" Comparator="EQ">
<CheckValue>V7WOK_OS</CheckValue>
</RangeCheck>
</def:WhereClauseDef>
<def:WhereClauseDef OID="WC.SUPPOE.QVAL.V7WOEGSYN">
<RangeCheck SoftHard="Soft" def:ItemOID="IT.SUPPOE.QNAM" Comparator="EQ">
<CheckValue>V7WOEGSYN</CheckValue>
</RangeCheck>
</def:WhereClauseDef>
<def:WhereClauseDef OID="WC.SUPPOE.QVAL.V7WOEGSN">
<RangeCheck SoftHard="Soft" def:ItemOID="IT.SUPPOE.QNAM" Comparator="EQ">
<CheckValue>V7WOEGSN</CheckValue>
</RangeCheck>
</def:WhereClauseDef>
<def:WhereClauseDef OID="WC.SUPPOE.QVAL.V7IPWO_YN">
<RangeCheck SoftHard="Soft" def:ItemOID="IT.SUPPOE.QNAM" Comparator="EQ">
<CheckValue>V7IPWO_YN</CheckValue>
</RangeCheck>
</def:WhereClauseDef>
<def:WhereClauseDef OID="WC.SUPPOE.QVAL.V7IPWO_N">
<RangeCheck SoftHard="Soft" def:ItemOID="IT.SUPPOE.QNAM" Comparator="EQ">
<CheckValue>V7IPWO_N</CheckValue>
</RangeCheck>
</def:WhereClauseDef>
<def:WhereClauseDef OID="WC.SUPPOE.QVAL.V7UFWO_YN">
<RangeCheck SoftHard="Soft" def:ItemOID="IT.SUPPOE.QNAM" Comparator="EQ">
<CheckValue>V7UFWO_YN</CheckValue>
</RangeCheck>
</def:WhereClauseDef>
<def:WhereClauseDef OID="WC.SUPPOE.QVAL.V7UFWO_N">
<RangeCheck SoftHard="Soft" def:ItemOID="IT.SUPPOE.QNAM" Comparator="EQ">
<CheckValue>V7UFWO_N</CheckValue>
</RangeCheck>
</def:WhereClauseDef>
<def:WhereClauseDef OID="WC.SUPPOE.QVAL.V7A2YN">
<RangeCheck SoftHard="Soft" def:ItemOID="IT.SUPPOE.QNAM" Comparator="EQ">
<CheckValue>V7A2YN</CheckValue>
</RangeCheck>
</def:WhereClauseDef>
<def:WhereClauseDef OID="WC.SUPPOE.QVAL.V7A2N">
<RangeCheck SoftHard="Soft" def:ItemOID="IT.SUPPOE.QNAM" Comparator="EQ">
<CheckValue>V7A2N</CheckValue>
</RangeCheck>
</def:WhereClauseDef>
<def:WhereClauseDef OID="WC.SUPPAE.QVAL.AECOM">
<RangeCheck SoftHard="Soft" def:ItemOID="IT.SUPPAE.QNAM" Comparator="EQ">
<CheckValue>AECOM</CheckValue>
</RangeCheck>
</def:WhereClauseDef>
<def:WhereClauseDef OID="WC.SUPPEX.QVAL.EXCOM">
<RangeCheck SoftHard="Soft" def:ItemOID="IT.SUPPEX.QNAM" Comparator="EQ">
<CheckValue>EXCOM</CheckValue>
</RangeCheck>
</def:WhereClauseDef>
<def:WhereClauseDef OID="WC.SUPPEX.QVAL.EXDY">
<RangeCheck SoftHard="Soft" def:ItemOID="IT.SUPPEX.QNAM" Comparator="EQ">
<CheckValue>EXDY</CheckValue>
</RangeCheck>
</def:WhereClauseDef>
<!-- ******************************************* -->
<!-- AE             ItemGroupDef INFORMATION *** -->
<!-- ******************************************* -->
<ItemGroupDef OID="IG.AE"
Domain="AE"
Name="AE"
Repeating="Yes"
Purpose="Tabulation"
IsReferenceData="No"
SASDatasetName="AE"
def:Structure="One record per adverse event per subject"
def:Class="Events"
def:ArchiveLocationID="Location.AE">
<Description>
  <TranslatedText xml:lang="en">Adverse Events</TranslatedText>
</Description>
<ItemRef ItemOID="IT.AE.AEACN"
OrderNumber="20"
Mandatory="Yes"
Role="Record Qualifier"
RoleCodeListOID="CodeList.rolecode"/>
<ItemRef ItemOID="IT.AE.AEBODSYS"
OrderNumber="14"
Mandatory="Yes"
Role="Record Qualifier"
RoleCodeListOID="CodeList.rolecode"/>
<ItemRef ItemOID="IT.AE.AEBDSYCD"
OrderNumber="15"
Mandatory="Yes"
Role="Variable Qualifier"
RoleCodeListOID="CodeList.rolecode"/>
<ItemRef ItemOID="IT.AE.AEREL"
OrderNumber="23"
Mandatory="Yes"
Role="Record Qualifier"
RoleCodeListOID="CodeList.rolecode"/>
<ItemRef ItemOID="IT.AE.AEDTC"
OrderNumber="26"
Mandatory="No"
MethodOID="MT.AE.AEDTC"
Role="Timing"
RoleCodeListOID="CodeList.rolecode"/>
<ItemRef ItemOID="IT.AE.AEDECOD"
OrderNumber="8"
Mandatory="Yes"
KeySequence="3"
Role="Synonym Qualifier"
RoleCodeListOID="CodeList.rolecode"/>
<ItemRef ItemOID="IT.AE.DOMAIN"
OrderNumber="2"
Mandatory="Yes"
MethodOID="MT.SETDOMAIN"
Role="Identifier"
RoleCodeListOID="CodeList.rolecode"/>
<ItemRef ItemOID="IT.AE.AEDUR"
OrderNumber="31"
Mandatory="No"
MethodOID="MT.STUDYDAYS"
Role="Timing"
RoleCodeListOID="CodeList.rolecode"/>
<ItemRef ItemOID="IT.AE.AEENDTC"
OrderNumber="28"
Mandatory="Yes"
MethodOID="MT.AE.ENDTC"
Role="Timing"
RoleCodeListOID="CodeList.rolecode"/>
<ItemRef ItemOID="IT.AE.EPOCH"
OrderNumber="25"
Mandatory="No"
MethodOID="MT.AE.EPOCH"
Role="Timing"
RoleCodeListOID="CodeList.rolecode"/>
<ItemRef ItemOID="IT.AE.AEEXP"
OrderNumber="22"
Mandatory="No"
Role="Record Qualifier"
RoleCodeListOID="CodeList.rolecode"/>
<ItemRef ItemOID="IT.AE.AEHLGT"
OrderNumber="12"
Mandatory="Yes"
Role="Variable Qualifier"
RoleCodeListOID="CodeList.rolecode"/>
<ItemRef ItemOID="IT.AE.AEHLGTCD"
OrderNumber="13"
Mandatory="Yes"
Role="Variable Qualifier"
RoleCodeListOID="CodeList.rolecode"/>
<ItemRef ItemOID="IT.AE.AEHLT"
OrderNumber="10"
Mandatory="Yes"
Role="Variable Qualifier"
RoleCodeListOID="CodeList.rolecode"/>
<ItemRef ItemOID="IT.AE.AEHLTCD"
OrderNumber="11"
Mandatory="Yes"
Role="Variable Qualifier"
RoleCodeListOID="CodeList.rolecode"/>
<ItemRef ItemOID="IT.AE.AELLT"
OrderNumber="6"
Mandatory="Yes"
Role="Variable Qualifier"
RoleCodeListOID="CodeList.rolecode"/>
<ItemRef ItemOID="IT.AE.AELLTCD"
OrderNumber="7"
Mandatory="Yes"
Role="Variable Qualifier"
RoleCodeListOID="CodeList.rolecode"/>
<ItemRef ItemOID="IT.AE.AEACNOTH"
OrderNumber="21"
Mandatory="No"
Role="Record Qualifier"
RoleCodeListOID="CodeList.rolecode"/>
<ItemRef ItemOID="IT.AE.AEOUT"
OrderNumber="24"
Mandatory="No"
Role="Record Qualifier"
RoleCodeListOID="CodeList.rolecode"/>
<ItemRef ItemOID="IT.AE.AEPTCD"
OrderNumber="9"
Mandatory="Yes"
Role="Variable Qualifier"
RoleCodeListOID="CodeList.rolecode"/>
<ItemRef ItemOID="IT.AE.AESOC"
OrderNumber="16"
Mandatory="Yes"
Role="Variable Qualifier"
RoleCodeListOID="CodeList.rolecode"/>
<ItemRef ItemOID="IT.AE.AESOCCD"
OrderNumber="17"
Mandatory="Yes"
Role="Variable Qualifier"
RoleCodeListOID="CodeList.rolecode"/>
<ItemRef ItemOID="IT.AE.AETERM"
OrderNumber="5"
Mandatory="Yes"
Role="Topic"
RoleCodeListOID="CodeList.rolecode"/>
<ItemRef ItemOID="IT.AE.AESEQ"
OrderNumber="4"
Mandatory="Yes"
MethodOID="MT.AE.SEQ"
Role="Identifier"
RoleCodeListOID="CodeList.rolecode"/>
<ItemRef ItemOID="IT.AE.AESER"
OrderNumber="19"
Mandatory="Yes"
Role="Record Qualifier"
RoleCodeListOID="CodeList.rolecode"/>
<ItemRef ItemOID="IT.AE.AESEV"
OrderNumber="18"
Mandatory="No"
Role="Record Qualifier"
RoleCodeListOID="CodeList.rolecode"/>
<ItemRef ItemOID="IT.AE.AESTDTC"
OrderNumber="27"
Mandatory="Yes"
KeySequence="4"
MethodOID="MT.AE.STDTC"
Role="Timing"
RoleCodeListOID="CodeList.rolecode"/>
<ItemRef ItemOID="IT.AE.AEENDY"
OrderNumber="30"
Mandatory="No"
MethodOID="MT.STUDYDAYS"
Role="Timing"
RoleCodeListOID="CodeList.rolecode"/>
<ItemRef ItemOID="IT.AE.AESTDY"
OrderNumber="29"
Mandatory="No"
MethodOID="MT.STUDYDAYS"
Role="Timing"
RoleCodeListOID="CodeList.rolecode"/>
<ItemRef ItemOID="IT.AE.STUDYID"
OrderNumber="1"
Mandatory="Yes"
KeySequence="1"
MethodOID="MT.STUDYID"
Role="Identifier"
RoleCodeListOID="CodeList.rolecode"/>
<ItemRef ItemOID="IT.AE.USUBJID"
OrderNumber="3"
Mandatory="Yes"
KeySequence="2"
MethodOID="MT.USUBJID"
Role="Identifier"
RoleCodeListOID="CodeList.rolecode"/>
 <!-- **************************************************** -->
      <!-- def:leaf details for hypertext linking the dataset   -->
      <!-- **************************************************** -->
<def:leaf ID="Location.AE" xlink:href="ae.xpt">
    <def:title>ae.xpt </def:title>
  </def:leaf>
</ItemGroupDef>
<!-- ******************************************* -->
<!-- CM             ItemGroupDef INFORMATION *** -->
<!-- ******************************************* -->
<ItemGroupDef OID="IG.CM"
Domain="CM"
Name="CM"
Repeating="Yes"
Purpose="Tabulation"
IsReferenceData="Yes"
SASDatasetName="CM"
def:Structure="One record per recorded intervention occurrence or constant- dosing interval per subject"
def:Class="Interventions"
def:ArchiveLocationID="Location.CM">
<Description>
  <TranslatedText xml:lang="en">Concomitant Medications</TranslatedText>
</Description>
<ItemRef ItemOID="IT.CM.CMCAT"
OrderNumber="9"
Mandatory="No"
Role="Grouping Qualifier"
RoleCodeListOID="CodeList.rolecode"/>
<ItemRef ItemOID="IT.CM.DOMAIN"
OrderNumber="2"
Mandatory="Yes"
MethodOID="MT.SETDOMAIN"
Role="Identifier"
RoleCodeListOID="CodeList.rolecode"/>
<ItemRef ItemOID="IT.CM.CMDOSFRM"
OrderNumber="16"
Mandatory="No"
Role="Variable Qualifier"
RoleCodeListOID="CodeList.rolecode"/>
<ItemRef ItemOID="IT.CM.CMDOSE"
OrderNumber="14"
Mandatory="No"
Role="Record Qualifier"
RoleCodeListOID="CodeList.rolecode"/>
<ItemRef ItemOID="IT.CM.CMDOSU"
OrderNumber="15"
Mandatory="No"
Role="Variable Qualifier"
RoleCodeListOID="CodeList.rolecode"/>
<ItemRef ItemOID="IT.CM.CMDOSFRQ"
OrderNumber="17"
Mandatory="No"
Role="Record Qualifier"
RoleCodeListOID="CodeList.rolecode"/>
<ItemRef ItemOID="IT.CM.CMDUR"
OrderNumber="24"
Mandatory="No"
MethodOID="MT.STUDYDAYS"
Role="Timing"
RoleCodeListOID="CodeList.rolecode"/>
<ItemRef ItemOID="IT.CM.CMENDTC"
OrderNumber="21"
Mandatory="No"
MethodOID="MT.CM.ENDTC"
Role="Timing"
RoleCodeListOID="CodeList.rolecode"/>
<ItemRef ItemOID="IT.CM.EPOCH"
OrderNumber="19"
Mandatory="No"
MethodOID="MT.CM.EPOCH"
Role="Timing"
RoleCodeListOID="CodeList.rolecode"/>
<ItemRef ItemOID="IT.CM.CMGRPID"
OrderNumber="5"
Mandatory="No"
MethodOID="MT.CM.GRPID"
Role="Identifier"
RoleCodeListOID="CodeList.rolecode"/>
<ItemRef ItemOID="IT.CM.CMINDC"
OrderNumber="11"
Mandatory="No"
Role="Record Qualifier"
RoleCodeListOID="CodeList.rolecode"/>
<ItemRef ItemOID="IT.CM.CMCLAS"
OrderNumber="12"
Mandatory="No"
Role="Variable Qualifier"
RoleCodeListOID="CodeList.rolecode"/>
<ItemRef ItemOID="IT.CM.CMCLASCD"
OrderNumber="13"
Mandatory="No"
Role="Variable Qualifier"
RoleCodeListOID="CodeList.rolecode"/>
<ItemRef ItemOID="IT.CM.CMMODIFY"
OrderNumber="7"
Mandatory="No"
Role="Synonym Qualifier"
RoleCodeListOID="CodeList.rolecode"/>
<ItemRef ItemOID="IT.CM.CMTRT"
OrderNumber="6"
Mandatory="Yes"
KeySequence="3"
Role="Topic"
RoleCodeListOID="CodeList.rolecode"/>
<ItemRef ItemOID="IT.CM.CMROUTE"
OrderNumber="18"
Mandatory="No"
Role="Variable Qualifier"
RoleCodeListOID="CodeList.rolecode"/>
<ItemRef ItemOID="IT.CM.CMSEQ"
OrderNumber="4"
Mandatory="Yes"
MethodOID="MT.CM.SEQ"
Role="Identifier"
RoleCodeListOID="CodeList.rolecode"/>
<ItemRef ItemOID="IT.CM.CMDECOD"
OrderNumber="8"
Mandatory="No"
Role="Synonym Qualifier"
RoleCodeListOID="CodeList.rolecode"/>
<ItemRef ItemOID="IT.CM.CMSTDTC"
OrderNumber="20"
Mandatory="No"
KeySequence="4"
MethodOID="MT.CM.STDTC"
Role="Timing"
RoleCodeListOID="CodeList.rolecode"/>
<ItemRef ItemOID="IT.CM.CMENDY"
OrderNumber="23"
Mandatory="No"
MethodOID="MT.STUDYDAYS"
Role="Timing"
RoleCodeListOID="CodeList.rolecode"/>
<ItemRef ItemOID="IT.CM.CMSTDY"
OrderNumber="22"
Mandatory="No"
MethodOID="MT.STUDYDAYS"
Role="Timing"
RoleCodeListOID="CodeList.rolecode"/>
<ItemRef ItemOID="IT.CM.STUDYID"
OrderNumber="1"
Mandatory="Yes"
KeySequence="1"
MethodOID="MT.STUDYID"
Role="Identifier"
RoleCodeListOID="CodeList.rolecode"/>
<ItemRef ItemOID="IT.CM.CMSCAT"
OrderNumber="10"
Mandatory="No"
Role="Grouping Qualifier"
RoleCodeListOID="CodeList.rolecode"/>
<ItemRef ItemOID="IT.CM.USUBJID"
OrderNumber="3"
Mandatory="Yes"
KeySequence="2"
MethodOID="MT.USUBJID"
Role="Identifier"
RoleCodeListOID="CodeList.rolecode"/>
 <!-- **************************************************** -->
      <!-- def:leaf details for hypertext linking the dataset   -->
      <!-- **************************************************** -->
<def:leaf ID="Location.CM" xlink:href="cm.xpt">
    <def:title>cm.xpt </def:title>
  </def:leaf>
</ItemGroupDef>
<!-- ******************************************* -->
<!-- CO             ItemGroupDef INFORMATION *** -->
<!-- ******************************************* -->
<ItemGroupDef OID="IG.CO"
Domain="CO"
Name="CO"
Repeating="Yes"
Purpose="Tabulation"
IsReferenceData="No"
SASDatasetName="CO"
def:Structure="One record per comment per subject"
def:Class="Special Purpose"
def:ArchiveLocationID="Location.CO">
<Description>
  <TranslatedText xml:lang="en">Comments</TranslatedText>
</Description>
<ItemRef ItemOID="IT.CO.COVAL"
OrderNumber="9"
Mandatory="Yes"
Role="Topic"
RoleCodeListOID="CodeList.rolecode"/>
<ItemRef ItemOID="IT.CO.COREF"
OrderNumber="8"
Mandatory="No"
KeySequence="4"
Role="Record Qualifier"
RoleCodeListOID="CodeList.rolecode"/>
<ItemRef ItemOID="IT.CO.CODTC"
OrderNumber="11"
Mandatory="No"
KeySequence="5"
MethodOID="MT.CO.CODTC"
Role="Timing"
RoleCodeListOID="CodeList.rolecode"/>
<ItemRef ItemOID="IT.CO.DOMAIN"
OrderNumber="2"
Mandatory="Yes"
MethodOID="MT.SETDOMAIN"
Role="Identifier"
RoleCodeListOID="CodeList.rolecode"/>
<ItemRef ItemOID="IT.CO.COEVAL"
OrderNumber="10"
Mandatory="No"
Role="Record Qualifier"
RoleCodeListOID="CodeList.rolecode"/>
<ItemRef ItemOID="IT.CO.IDVAR"
OrderNumber="6"
Mandatory="No"
KeySequence="3"
Role="Record Qualifier"
RoleCodeListOID="CodeList.rolecode"/>
<ItemRef ItemOID="IT.CO.IDVARVAL"
OrderNumber="7"
Mandatory="No"
Role="Record Qualifier"
RoleCodeListOID="CodeList.rolecode"/>
<ItemRef ItemOID="IT.CO.RDOMAIN"
OrderNumber="3"
Mandatory="No"
Role="Record Qualifier"
RoleCodeListOID="CodeList.rolecode"/>
<ItemRef ItemOID="IT.CO.COSEQ"
OrderNumber="5"
Mandatory="Yes"
Role="Identifier"
RoleCodeListOID="CodeList.rolecode"/>
<ItemRef ItemOID="IT.CO.STUDYID"
OrderNumber="1"
Mandatory="Yes"
KeySequence="1"
MethodOID="MT.STUDYID"
Role="Identifier"
RoleCodeListOID="CodeList.rolecode"/>
<ItemRef ItemOID="IT.CO.USUBJID"
OrderNumber="4"
Mandatory="Yes"
KeySequence="2"
MethodOID="MT.USUBJID"
Role="Identifier"
RoleCodeListOID="CodeList.rolecode"/>
 <!-- **************************************************** -->
      <!-- def:leaf details for hypertext linking the dataset   -->
      <!-- **************************************************** -->
<def:leaf ID="Location.CO" xlink:href="co.xpt">
    <def:title>co.xpt </def:title>
  </def:leaf>
</ItemGroupDef>
<!-- ******************************************* -->
<!-- DA             ItemGroupDef INFORMATION *** -->
<!-- ******************************************* -->
<ItemGroupDef OID="IG.DA"
Domain="DA"
Name="DA"
Repeating="Yes"
Purpose="Tabulation"
IsReferenceData="Yes"
SASDatasetName="DA"
def:Structure="One record per product
accountability finding per subject"
def:Class="Findings"
def:ArchiveLocationID="Location.DA">
<Description>
  <TranslatedText xml:lang="en">Product Acountability</TranslatedText>
</Description>
<ItemRef ItemOID="IT.DA.DADTC"
OrderNumber="15"
Mandatory="Yes"
KeySequence="4"
MethodOID="MT.DA.DADTC"
Role="Timing"
RoleCodeListOID="CodeList.rolecode"/>
<ItemRef ItemOID="IT.DA.DOMAIN"
OrderNumber="2"
Mandatory="Yes"
MethodOID="MT.SETDOMAIN"
Role="Identifier"
RoleCodeListOID="CodeList.rolecode"/>
<ItemRef ItemOID="IT.DA.EPOCH"
OrderNumber="14"
Mandatory="No"
MethodOID="MT.DA.EPOCH"
Role="Timing"
RoleCodeListOID="CodeList.rolecode"/>
<ItemRef ItemOID="IT.DA.DAORRESU"
OrderNumber="7"
Mandatory="No"
Role="Variable Qualifier"
RoleCodeListOID="CodeList.rolecode"/>
<ItemRef ItemOID="IT.DA.TAETORD"
OrderNumber="13"
Mandatory="No"
Role="Timing"
RoleCodeListOID="CodeList.rolecode"/>
<ItemRef ItemOID="IT.DA.VISITDY"
OrderNumber="12"
Mandatory="No"
Role="Timing"
RoleCodeListOID="CodeList.rolecode"/>
<ItemRef ItemOID="IT.DA.DAREASND"
OrderNumber="9"
Mandatory="No"
Role="Record Qualifier"
RoleCodeListOID="CodeList.rolecode"/>
<ItemRef ItemOID="IT.DA.DAORRES"
OrderNumber="6"
Mandatory="Yes"
Role="Result Qualifier"
RoleCodeListOID="CodeList.rolecode"/>
<ItemRef ItemOID="IT.DA.DASTRESC"
OrderNumber="8"
Mandatory="Yes"
Role="Result Qualifier"
RoleCodeListOID="CodeList.rolecode"/>
<ItemRef ItemOID="IT.DA.DASEQ"
OrderNumber="4"
Mandatory="Yes"
Role="Identifier"
RoleCodeListOID="CodeList.rolecode"/>
<ItemRef ItemOID="IT.DA.DASPID"
OrderNumber="5"
Mandatory="No"
Role="Identifier"
RoleCodeListOID="CodeList.rolecode"/>
<ItemRef ItemOID="IT.DA.DADY"
OrderNumber="16"
Mandatory="No"
MethodOID="MT.STUDYDAYS"
Role="Timing"
RoleCodeListOID="CodeList.rolecode"/>
<ItemRef ItemOID="IT.DA.STUDYID"
OrderNumber="1"
Mandatory="Yes"
KeySequence="1"
MethodOID="MT.STUDYID"
Role="Identifier"
RoleCodeListOID="CodeList.rolecode"/>
<ItemRef ItemOID="IT.DA.USUBJID"
OrderNumber="3"
Mandatory="Yes"
KeySequence="2"
MethodOID="MT.USUBJID"
Role="Identifier"
RoleCodeListOID="CodeList.rolecode"/>
<ItemRef ItemOID="IT.DA.VISIT"
OrderNumber="11"
Mandatory="No"
MethodOID="MT.DA.VISIT"
Role="Timing"
RoleCodeListOID="CodeList.rolecode"/>
<ItemRef ItemOID="IT.DA.VISITNUM"
OrderNumber="10"
Mandatory="Yes"
MethodOID="MT.DA.VISITNUM"
Role="Timing"
RoleCodeListOID="CodeList.rolecode"/>
 <!-- **************************************************** -->
      <!-- def:leaf details for hypertext linking the dataset   -->
      <!-- **************************************************** -->
<def:leaf ID="Location.DA" xlink:href="da.xpt">
    <def:title>da.xpt </def:title>
  </def:leaf>
</ItemGroupDef>
<!-- ******************************************* -->
<!-- DM             ItemGroupDef INFORMATION *** -->
<!-- ******************************************* -->
<ItemGroupDef OID="IG.DM"
Domain="DM"
Name="DM"
Repeating="No"
Purpose="Tabulation"
IsReferenceData="No"
SASDatasetName="DM"
def:Structure="One record per subject"
def:Class="Special Purpose"
def:ArchiveLocationID="Location.DM">
<Description>
  <TranslatedText xml:lang="en">Demographics</TranslatedText>
</Description>
<ItemRef ItemOID="IT.DM.ACTARMCD"
OrderNumber="24"
Mandatory="Yes"
Role="Record Qualifier"
RoleCodeListOID="CodeList.rolecode"/>
<ItemRef ItemOID="IT.DM.AGE"
OrderNumber="17"
Mandatory="Yes"
Role="Record Qualifier"
RoleCodeListOID="CodeList.rolecode"/>
<ItemRef ItemOID="IT.DM.AGEU"
OrderNumber="18"
Mandatory="Yes"
MethodOID="MT.DM.AGEU"
Role="Variable Qualifier"
RoleCodeListOID="CodeList.rolecode"/>
<ItemRef ItemOID="IT.DM.COUNTRY"
OrderNumber="28"
Mandatory="Yes"
MethodOID="MT.DM.COUNTRY"
Role="Record Qualifier"
RoleCodeListOID="CodeList.rolecode"/>
<ItemRef ItemOID="IT.DM.BRTHDTC"
OrderNumber="16"
Mandatory="No"
MethodOID="MT.DM.BRTHDTC"
Role="Timing"
RoleCodeListOID="CodeList.rolecode"/>
<ItemRef ItemOID="IT.DM.DMDTC"
OrderNumber="29"
Mandatory="No"
MethodOID="MT.DM.DMDTC"
Role="Timing"
RoleCodeListOID="CodeList.rolecode"/>
<ItemRef ItemOID="IT.DM.DTHDTC"
OrderNumber="11"
Mandatory="Yes"
MethodOID="MT.DM.DTHDTC"
Role="Timing"
RoleCodeListOID="CodeList.rolecode"/>
<ItemRef ItemOID="IT.DM.RFPENDTC"
OrderNumber="10"
Mandatory="Yes"
MethodOID="MT.DM.RFPENDTC"
Role="Timing"
RoleCodeListOID="CodeList.rolecode"/>
<ItemRef ItemOID="IT.DM.RFXSTDTC"
OrderNumber="7"
Mandatory="Yes"
MethodOID="MT.DM.RFXSTDTC"
Role="Timing"
RoleCodeListOID="CodeList.rolecode"/>
<ItemRef ItemOID="IT.DM.RFICDTC"
OrderNumber="9"
Mandatory="Yes"
MethodOID="MT.DM.RFICDTC"
Role="Timing"
RoleCodeListOID="CodeList.rolecode"/>
<ItemRef ItemOID="IT.DM.RFXENDTC"
OrderNumber="8"
Mandatory="Yes"
MethodOID="MT.DM.RFXENDTC"
Role="Timing"
RoleCodeListOID="CodeList.rolecode"/>
<ItemRef ItemOID="IT.DM.ACTARM"
OrderNumber="25"
Mandatory="Yes"
Role="Synonym Qualifier"
RoleCodeListOID="CodeList.rolecode"/>
<ItemRef ItemOID="IT.DM.ARM"
OrderNumber="23"
Mandatory="Yes"
MethodOID="MT.DM.ARM"
Role="Synonym Qualifier"
RoleCodeListOID="CodeList.rolecode"/>
<ItemRef ItemOID="IT.DM.ACTARMUD"
OrderNumber="27"
Mandatory="Yes"
MethodOID="MT.DM.ACTARMUD"
Role="Record Qualifier"
RoleCodeListOID="CodeList.rolecode"/>
<ItemRef ItemOID="IT.DM.DOMAIN"
OrderNumber="2"
Mandatory="Yes"
MethodOID="MT.SETDOMAIN"
Role="Identifier"
RoleCodeListOID="CodeList.rolecode"/>
<ItemRef ItemOID="IT.DM.ETHNIC"
OrderNumber="21"
Mandatory="No"
Role="Record Qualifier"
RoleCodeListOID="CodeList.rolecode"/>
<ItemRef ItemOID="IT.DM.INVID"
OrderNumber="14"
Mandatory="No"
MethodOID="MT.DM.INVID"
Role="Record Qualifier"
RoleCodeListOID="CodeList.rolecode"/>
<ItemRef ItemOID="IT.DM.INVNAM"
OrderNumber="15"
Mandatory="No"
Role="Synonym Qualifier"
RoleCodeListOID="CodeList.rolecode"/>
<ItemRef ItemOID="IT.DM.ARMCD"
OrderNumber="22"
Mandatory="Yes"
MethodOID="MT.DM.ARMCD"
Role="Record Qualifier"
RoleCodeListOID="CodeList.rolecode"/>
<ItemRef ItemOID="IT.DM.RACE"
OrderNumber="20"
Mandatory="Yes"
Role="Record Qualifier"
RoleCodeListOID="CodeList.rolecode"/>
<ItemRef ItemOID="IT.DM.ARMNRS"
OrderNumber="26"
Mandatory="Yes"
MethodOID="MT.DM.ARMNULRS"
Role="Record Qualifier"
RoleCodeListOID="CodeList.rolecode"/>
<ItemRef ItemOID="IT.DM.SEX"
OrderNumber="19"
Mandatory="Yes"
Role="Record Qualifier"
RoleCodeListOID="CodeList.rolecode"/>
<ItemRef ItemOID="IT.DM.DMDY"
OrderNumber="30"
Mandatory="No"
MethodOID="MT.STUDYDAYS"
Role="Timing"
RoleCodeListOID="CodeList.rolecode"/>
<ItemRef ItemOID="IT.DM.STUDYID"
OrderNumber="1"
Mandatory="Yes"
KeySequence="1"
MethodOID="MT.STUDYID"
Role="Identifier"
RoleCodeListOID="CodeList.rolecode"/>
<ItemRef ItemOID="IT.DM.SITEID"
OrderNumber="13"
Mandatory="Yes"
Role="Record Qualifier"
RoleCodeListOID="CodeList.rolecode"/>
<ItemRef ItemOID="IT.DM.DTHFL"
OrderNumber="12"
Mandatory="Yes"
MethodOID="MT.DM.DTHFL"
Role="Record Qualifier"
RoleCodeListOID="CodeList.rolecode"/>
<ItemRef ItemOID="IT.DM.SUBJID"
OrderNumber="4"
Mandatory="Yes"
Role="Topic"
RoleCodeListOID="CodeList.rolecode"/>
<ItemRef ItemOID="IT.DM.RFENDTC"
OrderNumber="6"
Mandatory="Yes"
MethodOID="MT.DM.RFENDTC"
Role="Record Qualifier"
RoleCodeListOID="CodeList.rolecode"/>
<ItemRef ItemOID="IT.DM.RFSTDTC"
OrderNumber="5"
Mandatory="Yes"
MethodOID="MT.DM.RFSTDTC"
Role="Record Qualifier"
RoleCodeListOID="CodeList.rolecode"/>
<ItemRef ItemOID="IT.DM.USUBJID"
OrderNumber="3"
Mandatory="Yes"
KeySequence="2"
MethodOID="MT.USUBJID"
Role="Identifier"
RoleCodeListOID="CodeList.rolecode"/>
 <!-- **************************************************** -->
      <!-- def:leaf details for hypertext linking the dataset   -->
      <!-- **************************************************** -->
<def:leaf ID="Location.DM" xlink:href="dm.xpt">
    <def:title>dm.xpt </def:title>
  </def:leaf>
</ItemGroupDef>
<!-- ******************************************* -->
<!-- DS             ItemGroupDef INFORMATION *** -->
<!-- ******************************************* -->
<ItemGroupDef OID="IG.DS"
Domain="DS"
Name="DS"
Repeating="Yes"
Purpose="Tabulation"
IsReferenceData="Yes"
SASDatasetName="DS"
def:Structure="One record per disposition status or protocol milestone per subject"
def:Class="Events"
def:ArchiveLocationID="Location.DS">
<Description>
  <TranslatedText xml:lang="en">Disposition</TranslatedText>
</Description>
<ItemRef ItemOID="IT.DS.DSCAT"
OrderNumber="7"
Mandatory="Yes"
MethodOID="MT.DS.DSCAT"
Role="Grouping Qualifier"
RoleCodeListOID="CodeList.rolecode"/>
<ItemRef ItemOID="IT.DS.DOMAIN"
OrderNumber="2"
Mandatory="Yes"
MethodOID="MT.SETDOMAIN"
Role="Identifier"
RoleCodeListOID="CodeList.rolecode"/>
<ItemRef ItemOID="IT.DS.EPOCH"
OrderNumber="8"
Mandatory="No"
MethodOID="MT.DS.EPOCH"
Role="Timing"
RoleCodeListOID="CodeList.rolecode"/>
<ItemRef ItemOID="IT.DS.DSTERM"
OrderNumber="5"
Mandatory="Yes"
MethodOID="MT.DS.DSTERM"
Role="Topic"
RoleCodeListOID="CodeList.rolecode"/>
<ItemRef ItemOID="IT.DS.DSSEQ"
OrderNumber="4"
Mandatory="Yes"
MethodOID="MT.DS.DSSEQ"
Role="Identifier"
RoleCodeListOID="CodeList.rolecode"/>
<ItemRef ItemOID="IT.DS.DSDECOD"
OrderNumber="6"
Mandatory="Yes"
KeySequence="3"
MethodOID="MT.DS.DSDECOD"
Role="Synonym Qualifier"
RoleCodeListOID="CodeList.rolecode"/>
<ItemRef ItemOID="IT.DS.DSSTDTC"
OrderNumber="9"
Mandatory="Yes"
KeySequence="4"
MethodOID="MT.DS.DSSTDTC"
Role="Timing"
RoleCodeListOID="CodeList.rolecode"/>
<ItemRef ItemOID="IT.DS.DSSTDY"
OrderNumber="10"
Mandatory="Yes"
MethodOID="MT.STUDYDAYS"
Role="Timing"
RoleCodeListOID="CodeList.rolecode"/>
<ItemRef ItemOID="IT.DS.STUDYID"
OrderNumber="1"
Mandatory="Yes"
KeySequence="1"
MethodOID="MT.STUDYID"
Role="Identifier"
RoleCodeListOID="CodeList.rolecode"/>
<ItemRef ItemOID="IT.DS.USUBJID"
OrderNumber="3"
Mandatory="Yes"
KeySequence="2"
MethodOID="MT.USUBJID"
Role="Identifier"
RoleCodeListOID="CodeList.rolecode"/>
 <!-- **************************************************** -->
      <!-- def:leaf details for hypertext linking the dataset   -->
      <!-- **************************************************** -->
<def:leaf ID="Location.DS" xlink:href="ds.xpt">
    <def:title>ds.xpt </def:title>
  </def:leaf>
</ItemGroupDef>
<!-- ******************************************* -->
<!-- DV             ItemGroupDef INFORMATION *** -->
<!-- ******************************************* -->
<ItemGroupDef OID="IG.DV"
Domain="DV"
Name="DV"
Repeating="Yes"
Purpose="Tabulation"
IsReferenceData="Yes"
SASDatasetName="DV"
def:Structure="One record per protocol deviation per subject"
def:Class="Events"
def:ArchiveLocationID="Location.DV">
<Description>
  <TranslatedText xml:lang="en">Protocol Deviations</TranslatedText>
</Description>
<ItemRef ItemOID="IT.DV.DVACN"
OrderNumber="8"
Mandatory="No"
Role="Record Qualifier"
RoleCodeListOID="CodeList.rolecode"/>
<ItemRef ItemOID="IT.DV.DVCAT"
OrderNumber="6"
Mandatory="No"
Role="Grouping Qualifier"
RoleCodeListOID="CodeList.rolecode"/>
<ItemRef ItemOID="IT.DV.DOMAIN"
OrderNumber="2"
Mandatory="Yes"
MethodOID="MT.SETDOMAIN"
Role="Identifier"
RoleCodeListOID="CodeList.rolecode"/>
<ItemRef ItemOID="IT.DV.DVENDTC"
OrderNumber="11"
Mandatory="No"
MethodOID="MT.DV.DVENDTC"
Role="Timing"
RoleCodeListOID="CodeList.rolecode"/>
<ItemRef ItemOID="IT.DV.EPOCH"
OrderNumber="9"
Mandatory="No"
MethodOID="MT.DV.EPOCH"
Role="Timing"
RoleCodeListOID="CodeList.rolecode"/>
<ItemRef ItemOID="IT.DV.DVIMPACT"
OrderNumber="7"
Mandatory="No"
Role="Record Qualifier"
RoleCodeListOID="CodeList.rolecode"/>
<ItemRef ItemOID="IT.DV.DVTERM"
OrderNumber="5"
Mandatory="Yes"
Role="Topic"
RoleCodeListOID="CodeList.rolecode"/>
<ItemRef ItemOID="IT.DV.DVSEQ"
OrderNumber="4"
Mandatory="Yes"
MethodOID="MT.DV.DVSEQ"
Role="Identifier"
RoleCodeListOID="CodeList.rolecode"/>
<ItemRef ItemOID="IT.DV.DVSTDTC"
OrderNumber="10"
Mandatory="No"
KeySequence="4"
MethodOID="MT.DV.DVSTDTC"
Role="Timing"
RoleCodeListOID="CodeList.rolecode"/>
<ItemRef ItemOID="IT.DV.DVENDY"
OrderNumber="13"
Mandatory="No"
MethodOID="MT.STUDYDAYS"
Role="Timing"
RoleCodeListOID="CodeList.rolecode"/>
<ItemRef ItemOID="IT.DV.DVSTDY"
OrderNumber="12"
Mandatory="No"
MethodOID="MT.STUDYDAYS"
Role="Timing"
RoleCodeListOID="CodeList.rolecode"/>
<ItemRef ItemOID="IT.DV.STUDYID"
OrderNumber="1"
Mandatory="Yes"
KeySequence="1"
MethodOID="MT.STUDYID"
Role="Identifier"
RoleCodeListOID="CodeList.rolecode"/>
<ItemRef ItemOID="IT.DV.USUBJID"
OrderNumber="3"
Mandatory="Yes"
KeySequence="2"
MethodOID="MT.USUBJID"
Role="Identifier"
RoleCodeListOID="CodeList.rolecode"/>
 <!-- **************************************************** -->
      <!-- def:leaf details for hypertext linking the dataset   -->
      <!-- **************************************************** -->
<def:leaf ID="Location.DV" xlink:href="dv.xpt">
    <def:title>dv.xpt </def:title>
  </def:leaf>
</ItemGroupDef>
<!-- ******************************************* -->
<!-- EX             ItemGroupDef INFORMATION *** -->
<!-- ******************************************* -->
<ItemGroupDef OID="IG.EX"
Domain="EX"
Name="EX"
Repeating="Yes"
Purpose="Tabulation"
IsReferenceData="Yes"
SASDatasetName="EX"
def:Structure="One record per protocol-specified study treatment, constant-dosing interval, per subject"
def:Class="Interventions"
def:ArchiveLocationID="Location.EX">
<Description>
  <TranslatedText xml:lang="en">Exposure</TranslatedText>
</Description>
<ItemRef ItemOID="IT.EX.EXCAT"
OrderNumber="7"
Mandatory="No"
Role="Grouping Qualifier"
RoleCodeListOID="CodeList.rolecode"/>
<ItemRef ItemOID="IT.EX.DOMAIN"
OrderNumber="2"
Mandatory="Yes"
MethodOID="MT.SETDOMAIN"
Role="Identifier"
RoleCodeListOID="CodeList.rolecode"/>
<ItemRef ItemOID="IT.EX.EXDOSE"
OrderNumber="9"
Mandatory="Yes"
Role="Record Qualifier"
RoleCodeListOID="CodeList.rolecode"/>
<ItemRef ItemOID="IT.EX.EXDOSTXT"
OrderNumber="10"
Mandatory="No"
Role="Record Qualifier"
RoleCodeListOID="CodeList.rolecode"/>
<ItemRef ItemOID="IT.EX.EXDOSFRM"
OrderNumber="12"
Mandatory="Yes"
Role="Variable Qualifier"
RoleCodeListOID="CodeList.rolecode"/>
<ItemRef ItemOID="IT.EX.EXDOSU"
OrderNumber="11"
Mandatory="Yes"
Role="Variable Qualifier"
RoleCodeListOID="CodeList.rolecode"/>
<ItemRef ItemOID="IT.EX.EXDOSFRQ"
OrderNumber="13"
Mandatory="No"
Role="Record Qualifier"
RoleCodeListOID="CodeList.rolecode"/>
<ItemRef ItemOID="IT.EX.EXENDTC"
OrderNumber="24"
Mandatory="Yes"
MethodOID="MT.EX.EXENDTC"
Role="Timing"
RoleCodeListOID="CodeList.rolecode"/>
<ItemRef ItemOID="IT.EX.EPOCH"
OrderNumber="22"
Mandatory="No"
MethodOID="MT.EX.EPOCH"
Role="Timing"
RoleCodeListOID="CodeList.rolecode"/>
<ItemRef ItemOID="IT.EX.EXGRPID"
OrderNumber="5"
Mandatory="No"
Role="Identifier"
RoleCodeListOID="CodeList.rolecode"/>
<ItemRef ItemOID="IT.EX.EXDOSRGM"
OrderNumber="15"
Mandatory="No"
Role="Record Qualifier"
RoleCodeListOID="CodeList.rolecode"/>
<ItemRef ItemOID="IT.EX.EXLOC"
OrderNumber="19"
Mandatory="No"
Role="Record Qualifier"
RoleCodeListOID="CodeList.rolecode"/>
<ItemRef ItemOID="IT.EX.EXLOT"
OrderNumber="17"
Mandatory="No"
Role="Record Qualifier"
RoleCodeListOID="CodeList.rolecode"/>
<ItemRef ItemOID="IT.EX.EXTRT"
OrderNumber="6"
Mandatory="Yes"
KeySequence="3"
Role="Topic"
RoleCodeListOID="CodeList.rolecode"/>
<ItemRef ItemOID="IT.EX.TAETORD"
OrderNumber="21"
Mandatory="No"
Role="Timing"
RoleCodeListOID="CodeList.rolecode"/>
<ItemRef ItemOID="IT.EX.EXADJ"
OrderNumber="20"
Mandatory="NA"
Role="NA"
RoleCodeListOID="CodeList.rolecode"/>
<ItemRef ItemOID="IT.EX.EXROUTE"
OrderNumber="16"
Mandatory="No"
Role="Variable Qualifier"
RoleCodeListOID="CodeList.rolecode"/>
<ItemRef ItemOID="IT.EX.EXSEQ"
OrderNumber="4"
Mandatory="Yes"
Role="Identifier"
RoleCodeListOID="CodeList.rolecode"/>
<ItemRef ItemOID="IT.EX.EXSTDTC"
OrderNumber="23"
Mandatory="Yes"
KeySequence="4"
MethodOID="MT.EX.EXSTDTC"
Role="Timing"
RoleCodeListOID="CodeList.rolecode"/>
<ItemRef ItemOID="IT.EX.EXENDY"
OrderNumber="26"
Mandatory="No"
MethodOID="MT.STUDYDAYS"
Role="Timing"
RoleCodeListOID="CodeList.rolecode"/>
<ItemRef ItemOID="IT.EX.EXSTDY"
OrderNumber="25"
Mandatory="No"
MethodOID="MT.STUDYDAYS"
Role="Timing"
RoleCodeListOID="CodeList.rolecode"/>
<ItemRef ItemOID="IT.EX.STUDYID"
OrderNumber="1"
Mandatory="Yes"
KeySequence="1"
MethodOID="MT.STUDYID"
Role="Identifier"
RoleCodeListOID="CodeList.rolecode"/>
<ItemRef ItemOID="IT.EX.EXSCAT"
OrderNumber="8"
Mandatory="No"
Role="Grouping Qualifier"
RoleCodeListOID="CodeList.rolecode"/>
<ItemRef ItemOID="IT.EX.EXDOSTOT"
OrderNumber="14"
Mandatory="NA"
Role="NA"
RoleCodeListOID="CodeList.rolecode"/>
<ItemRef ItemOID="IT.EX.EXTRTV"
OrderNumber="18"
Mandatory="NA"
Role="NA"
RoleCodeListOID="CodeList.rolecode"/>
<ItemRef ItemOID="IT.EX.USUBJID"
OrderNumber="3"
Mandatory="Yes"
KeySequence="2"
MethodOID="MT.USUBJID"
Role="Identifier"
RoleCodeListOID="CodeList.rolecode"/>
 <!-- **************************************************** -->
      <!-- def:leaf details for hypertext linking the dataset   -->
      <!-- **************************************************** -->
<def:leaf ID="Location.EX" xlink:href="ex.xpt">
    <def:title>ex.xpt </def:title>
  </def:leaf>
</ItemGroupDef>
<!-- ******************************************* -->
<!-- IE             ItemGroupDef INFORMATION *** -->
<!-- ******************************************* -->
<ItemGroupDef OID="IG.IE"
Domain="IE"
Name="IE"
Repeating="Yes"
Purpose="Tabulation"
IsReferenceData="Yes"
SASDatasetName="IE"
def:Structure="One record per inclusion/exclusion criterion not met per subject"
def:Class="Findings"
def:ArchiveLocationID="Location.IE">
<Description>
  <TranslatedText xml:lang="en">Inclusion/Exclusion Exceptions</TranslatedText>
</Description>
<ItemRef ItemOID="IT.IE.IEDTC"
OrderNumber="16"
Mandatory="No"
MethodOID="MT.IE.IEDTC"
Role="Timing"
RoleCodeListOID="CodeList.rolecode"/>
<ItemRef ItemOID="IT.IE.DOMAIN"
OrderNumber="2"
Mandatory="Yes"
MethodOID="MT.SETDOMAIN"
Role="Identifier"
RoleCodeListOID="CodeList.rolecode"/>
<ItemRef ItemOID="IT.IE.EPOCH"
OrderNumber="15"
Mandatory="No"
MethodOID="MT.IE.EPOCH"
Role="Timing"
RoleCodeListOID="CodeList.rolecode"/>
<ItemRef ItemOID="IT.IE.IEORRES"
OrderNumber="9"
Mandatory="Yes"
Role="Result Qualifier"
RoleCodeListOID="CodeList.rolecode"/>
<ItemRef ItemOID="IT.IE.IESTRESC"
OrderNumber="10"
Mandatory="Yes"
MethodOID="MT.IE.IESTRESC"
Role="Result Qualifier"
RoleCodeListOID="CodeList.rolecode"/>
<ItemRef ItemOID="IT.IE.IECAT"
OrderNumber="7"
Mandatory="Yes"
MethodOID="MT.IE.IECAT"
Role="Grouping Qualifier"
RoleCodeListOID="CodeList.rolecode"/>
<ItemRef ItemOID="IT.IE.IETEST"
OrderNumber="6"
Mandatory="Yes"
MethodOID="MT.IE.IETEST"
Role="Synonym Qualifier"
RoleCodeListOID="CodeList.rolecode"/>
<ItemRef ItemOID="IT.IE.IETESTCD"
OrderNumber="5"
Mandatory="Yes"
KeySequence="3"
MethodOID="MT.IE.IETESTCD"
Role="Topic"
RoleCodeListOID="CodeList.rolecode"/>
<ItemRef ItemOID="IT.IE.IESCAT"
OrderNumber="8"
Mandatory="No"
MethodOID="MT.IE.IESCAT"
Role="Grouping Qualifier"
RoleCodeListOID="CodeList.rolecode"/>
<ItemRef ItemOID="IT.IE.TAETORD"
OrderNumber="14"
Mandatory="No"
MethodOID="MT.IE.TAETORD"
Role="Timing"
RoleCodeListOID="CodeList.rolecode"/>
<ItemRef ItemOID="IT.IE.VISITDY"
OrderNumber="13"
Mandatory="No"
MethodOID="MT.IE.VISITDY"
Role="Timing"
RoleCodeListOID="CodeList.rolecode"/>
<ItemRef ItemOID="IT.IE.IESEQ"
OrderNumber="4"
Mandatory="Yes"
MethodOID="MT.IE.IESEQ"
Role="Identifier"
RoleCodeListOID="CodeList.rolecode"/>
<ItemRef ItemOID="IT.IE.IEDY"
OrderNumber="17"
Mandatory="No"
MethodOID="MT.STUDYDAYS"
Role="Timing"
RoleCodeListOID="CodeList.rolecode"/>
<ItemRef ItemOID="IT.IE.STUDYID"
OrderNumber="1"
Mandatory="Yes"
KeySequence="1"
MethodOID="MT.STUDYID"
Role="Identifier"
RoleCodeListOID="CodeList.rolecode"/>
<ItemRef ItemOID="IT.IE.USUBJID"
OrderNumber="3"
Mandatory="Yes"
KeySequence="2"
MethodOID="MT.USUBJID"
Role="Identifier"
RoleCodeListOID="CodeList.rolecode"/>
<ItemRef ItemOID="IT.IE.VISIT"
OrderNumber="12"
Mandatory="No"
MethodOID="MT.IE.VISIT"
Role="Timing"
RoleCodeListOID="CodeList.rolecode"/>
<ItemRef ItemOID="IT.IE.VISITNUM"
OrderNumber="11"
Mandatory="No"
MethodOID="MT.IE.VISITNUM"
Role="Timing"
RoleCodeListOID="CodeList.rolecode"/>
 <!-- **************************************************** -->
      <!-- def:leaf details for hypertext linking the dataset   -->
      <!-- **************************************************** -->
<def:leaf ID="Location.IE" xlink:href="ie.xpt">
    <def:title>ie.xpt </def:title>
  </def:leaf>
</ItemGroupDef>
<!-- ******************************************* -->
<!-- LB             ItemGroupDef INFORMATION *** -->
<!-- ******************************************* -->
<ItemGroupDef OID="IG.LB"
Domain="LB"
Name="LB"
Repeating="Yes"
Purpose="Tabulation"
IsReferenceData="Yes"
SASDatasetName="LB"
def:Structure="One record per lab test per time point per visit per subject"
def:Class="Findings"
def:ArchiveLocationID="Location.LB">
<Description>
  <TranslatedText xml:lang="en">Laboratory Tests</TranslatedText>
</Description>
<ItemRef ItemOID="IT.LB.LBBLFL"
OrderNumber="30"
Mandatory="No"
Role="Record Qualifier"
RoleCodeListOID="CodeList.rolecode"/>
<ItemRef ItemOID="IT.LB.LBCAT"
OrderNumber="10"
Mandatory="Yes"
Role="Grouping Qualifier"
RoleCodeListOID="CodeList.rolecode"/>
<ItemRef ItemOID="IT.LB.LBSTRESC"
OrderNumber="16"
Mandatory="Yes"
Role="Result Qualifier"
RoleCodeListOID="CodeList.rolecode"/>
<ItemRef ItemOID="IT.LB.LBSTAT"
OrderNumber="23"
Mandatory="No"
Role="Record Qualifier"
RoleCodeListOID="CodeList.rolecode"/>
<ItemRef ItemOID="IT.LB.LBRFTDTC"
OrderNumber="45"
Mandatory="No"
MethodOID="MT.LB.LBRFTDTC"
Role="Timing"
RoleCodeListOID="CodeList.rolecode"/>
<ItemRef ItemOID="IT.LB.LBDTC"
OrderNumber="38"
Mandatory="Yes"
MethodOID="MT.LB.LBDTC"
Role="Timing"
RoleCodeListOID="CodeList.rolecode"/>
<ItemRef ItemOID="IT.LB.LBDRVFL"
OrderNumber="32"
Mandatory="No"
MethodOID="MT.LB.LBDRVFL"
Role="Record Qualifier"
RoleCodeListOID="CodeList.rolecode"/>
<ItemRef ItemOID="IT.LB.DOMAIN"
OrderNumber="2"
Mandatory="Yes"
MethodOID="MT.SETDOMAIN"
Role="Identifier"
RoleCodeListOID="CodeList.rolecode"/>
<ItemRef ItemOID="IT.LB.LBENDTC"
OrderNumber="39"
Mandatory="No"
MethodOID="MT.LB.LBENDTC"
Role="Timing"
RoleCodeListOID="CodeList.rolecode"/>
<ItemRef ItemOID="IT.LB.LBFAST"
OrderNumber="31"
Mandatory="No"
Role="Record Qualifier"
RoleCodeListOID="CodeList.rolecode"/>
<ItemRef ItemOID="IT.LB.LBGRPID"
OrderNumber="5"
Mandatory="No"
Role="Identifier"
RoleCodeListOID="CodeList.rolecode"/>
<ItemRef ItemOID="IT.LB.LBTEST"
OrderNumber="9"
Mandatory="Yes"
Role="Synonym Qualifier"
RoleCodeListOID="CodeList.rolecode"/>
<ItemRef ItemOID="IT.LB.LBTESTCD"
OrderNumber="8"
Mandatory="Yes"
KeySequence="3"
Role="Topic"
RoleCodeListOID="CodeList.rolecode"/>
<ItemRef ItemOID="IT.LB.LBLOINC"
OrderNumber="26"
Mandatory="No"
Role="Synonym Qualifier"
RoleCodeListOID="CodeList.rolecode"/>
<ItemRef ItemOID="IT.LB.LBMETHOD"
OrderNumber="29"
Mandatory="No"
Role="Record Qualifier"
RoleCodeListOID="CodeList.rolecode"/>
<ItemRef ItemOID="IT.LB.LBSTRESN"
OrderNumber="17"
Mandatory="Yes"
Role="Result Qualifier"
RoleCodeListOID="CodeList.rolecode"/>
<ItemRef ItemOID="IT.LB.LBORRESU"
OrderNumber="13"
Mandatory="Yes"
Role="Variable Qualifier"
RoleCodeListOID="CodeList.rolecode"/>
<ItemRef ItemOID="IT.LB.LBELTM"
OrderNumber="43"
Mandatory="No"
Role="Timing"
RoleCodeListOID="CodeList.rolecode"/>
<ItemRef ItemOID="IT.LB.VISITDY"
OrderNumber="37"
Mandatory="No"
MethodOID="MT.LB.VISITDY"
Role="Timing"
RoleCodeListOID="CodeList.rolecode"/>
<ItemRef ItemOID="IT.LB.LBTPT"
OrderNumber="41"
Mandatory="No"
Role="Timing"
RoleCodeListOID="CodeList.rolecode"/>
<ItemRef ItemOID="IT.LB.LBTPTNUM"
OrderNumber="42"
Mandatory="No"
KeySequence="7"
Role="Timing"
RoleCodeListOID="CodeList.rolecode"/>
<ItemRef ItemOID="IT.LB.LBREASND"
OrderNumber="24"
Mandatory="No"
Role="Record Qualifier"
RoleCodeListOID="CodeList.rolecode"/>
<ItemRef ItemOID="IT.LB.LBSTNRC"
OrderNumber="21"
Mandatory="No"
Role="Variable Qualifier"
RoleCodeListOID="CodeList.rolecode"/>
<ItemRef ItemOID="IT.LB.LBNRIND"
OrderNumber="22"
Mandatory="Yes"
Role="Variable Qualifier"
RoleCodeListOID="CodeList.rolecode"/>
<ItemRef ItemOID="IT.LB.LBORNRLO"
OrderNumber="14"
Mandatory="Yes"
Role="Variable Qualifier"
RoleCodeListOID="CodeList.rolecode"/>
<ItemRef ItemOID="IT.LB.LBSTNRLO"
OrderNumber="19"
Mandatory="Yes"
Role="Variable Qualifier"
RoleCodeListOID="CodeList.rolecode"/>
<ItemRef ItemOID="IT.LB.LBORNRHI"
OrderNumber="15"
Mandatory="Yes"
Role="Variable Qualifier"
RoleCodeListOID="CodeList.rolecode"/>
<ItemRef ItemOID="IT.LB.LBSTNRHI"
OrderNumber="20"
Mandatory="Yes"
Role="Variable Qualifier"
RoleCodeListOID="CodeList.rolecode"/>
<ItemRef ItemOID="IT.LB.LBORRES"
OrderNumber="12"
Mandatory="Yes"
Role="Result Qualifier"
RoleCodeListOID="CodeList.rolecode"/>
<ItemRef ItemOID="IT.LB.LBSEQ"
OrderNumber="4"
Mandatory="Yes"
Role="Identifier"
RoleCodeListOID="CodeList.rolecode"/>
<ItemRef ItemOID="IT.LB.LBSPCCND"
OrderNumber="28"
Mandatory="No"
Role="Record Qualifier"
RoleCodeListOID="CodeList.rolecode"/>
<ItemRef ItemOID="IT.LB.LBREFID"
OrderNumber="6"
Mandatory="No"
Role="Identifier"
RoleCodeListOID="CodeList.rolecode"/>
<ItemRef ItemOID="IT.LB.LBSPEC"
OrderNumber="27"
Mandatory="No"
KeySequence="4"
Role="Record Qualifier"
RoleCodeListOID="CodeList.rolecode"/>
<ItemRef ItemOID="IT.LB.LBSPID"
OrderNumber="7"
Mandatory="No"
Role="Identifier"
RoleCodeListOID="CodeList.rolecode"/>
<ItemRef ItemOID="IT.LB.LBTOXGR"
OrderNumber="34"
Mandatory="No"
Role="Record Qualifier"
RoleCodeListOID="CodeList.rolecode"/>
<ItemRef ItemOID="IT.LB.LBSTRESU"
OrderNumber="18"
Mandatory="Yes"
Role="Variable Qualifier"
RoleCodeListOID="CodeList.rolecode"/>
<ItemRef ItemOID="IT.LB.LBDY"
OrderNumber="40"
Mandatory="No"
MethodOID="MT.STUDYDAYS"
Role="Timing"
RoleCodeListOID="CodeList.rolecode"/>
<ItemRef ItemOID="IT.LB.STUDYID"
OrderNumber="1"
Mandatory="Yes"
KeySequence="1"
MethodOID="MT.STUDYID"
Role="Identifier"
RoleCodeListOID="CodeList.rolecode"/>
<ItemRef ItemOID="IT.LB.LBSCAT"
OrderNumber="11"
Mandatory="No"
Role="Grouping Qualifier"
RoleCodeListOID="CodeList.rolecode"/>
<ItemRef ItemOID="IT.LB.LBTPTREF"
OrderNumber="44"
Mandatory="No"
KeySequence="6"
Role="Timing"
RoleCodeListOID="CodeList.rolecode"/>
<ItemRef ItemOID="IT.LB.LBTOX"
OrderNumber="33"
Mandatory="No"
Role="Variable Qualifier"
RoleCodeListOID="CodeList.rolecode"/>
<ItemRef ItemOID="IT.LB.USUBJID"
OrderNumber="3"
Mandatory="Yes"
KeySequence="2"
MethodOID="MT.USUBJID"
Role="Identifier"
RoleCodeListOID="CodeList.rolecode"/>
<ItemRef ItemOID="IT.LB.LBNAM"
OrderNumber="25"
Mandatory="No"
Role="Record Qualifier"
RoleCodeListOID="CodeList.rolecode"/>
<ItemRef ItemOID="IT.LB.VISIT"
OrderNumber="36"
Mandatory="No"
MethodOID="MT.LB.VISIT"
Role="Timing"
RoleCodeListOID="CodeList.rolecode"/>
<ItemRef ItemOID="IT.LB.VISITNUM"
OrderNumber="35"
Mandatory="Yes"
KeySequence="5"
MethodOID="MT.LB.VISITNUM"
Role="Timing"
RoleCodeListOID="CodeList.rolecode"/>
 <!-- **************************************************** -->
      <!-- def:leaf details for hypertext linking the dataset   -->
      <!-- **************************************************** -->
<def:leaf ID="Location.LB" xlink:href="lb.xpt">
    <def:title>lb.xpt </def:title>
  </def:leaf>
</ItemGroupDef>
<!-- ******************************************* -->
<!-- MH             ItemGroupDef INFORMATION *** -->
<!-- ******************************************* -->
<ItemGroupDef OID="IG.MH"
Domain="MH"
Name="MH"
Repeating="Yes"
Purpose="Tabulation"
IsReferenceData="Yes"
SASDatasetName="MH"
def:Structure="One record per medical history event per subject"
def:Class="Events"
def:ArchiveLocationID="Location.MH">
<Description>
  <TranslatedText xml:lang="en">Medical History</TranslatedText>
</Description>
<ItemRef ItemOID="IT.MH.MHBODSYS"
OrderNumber="13"
Mandatory="No"
Role="Record Qualifier"
RoleCodeListOID="CodeList.rolecode"/>
<ItemRef ItemOID="IT.MH.MHCAT"
OrderNumber="8"
Mandatory="No"
Role="Grouping Qualifier"
RoleCodeListOID="CodeList.rolecode"/>
<ItemRef ItemOID="IT.MH.MHDTC"
OrderNumber="14"
Mandatory="No"
MethodOID="MT.MH.MHDTC"
Role="Timing"
RoleCodeListOID="CodeList.rolecode"/>
<ItemRef ItemOID="IT.MH.MHDECOD"
OrderNumber="7"
Mandatory="No"
KeySequence="3"
Role="Synonym Qualifier"
RoleCodeListOID="CodeList.rolecode"/>
<ItemRef ItemOID="IT.MH.DOMAIN"
OrderNumber="2"
Mandatory="Yes"
MethodOID="MT.SETDOMAIN"
Role="Identifier"
RoleCodeListOID="CodeList.rolecode"/>
<ItemRef ItemOID="IT.MH.MHENDTC"
OrderNumber="16"
Mandatory="No"
MethodOID="MT.MH.ENDTC"
Role="Timing"
RoleCodeListOID="CodeList.rolecode"/>
<ItemRef ItemOID="IT.MH.MHPRESP"
OrderNumber="10"
Mandatory="No"
Role="Grouping Qualifier"
RoleCodeListOID="CodeList.rolecode"/>
<ItemRef ItemOID="IT.MH.MHOCCUR"
OrderNumber="11"
Mandatory="No"
Role="Record Qualifier"
RoleCodeListOID="CodeList.rolecode"/>
<ItemRef ItemOID="IT.MH.MHMODIFY"
OrderNumber="6"
Mandatory="No"
Role="Synonym Qualifier"
RoleCodeListOID="CodeList.rolecode"/>
<ItemRef ItemOID="IT.MH.MHREASND"
OrderNumber="12"
Mandatory="No"
Role="Record Qualifier"
RoleCodeListOID="CodeList.rolecode"/>
<ItemRef ItemOID="IT.MH.MHTERM"
OrderNumber="5"
Mandatory="Yes"
Role="Topic"
RoleCodeListOID="CodeList.rolecode"/>
<ItemRef ItemOID="IT.MH.MHSEQ"
OrderNumber="4"
Mandatory="Yes"
MethodOID="MT.MH.MHSEQ"
Role="Identifier"
RoleCodeListOID="CodeList.rolecode"/>
<ItemRef ItemOID="IT.MH.MHSTDTC"
OrderNumber="15"
Mandatory="No"
MethodOID="MT.MH.STDTC"
Role="Timing"
RoleCodeListOID="CodeList.rolecode"/>
<ItemRef ItemOID="IT.MH.MHDY"
OrderNumber="17"
Mandatory="No"
MethodOID="MT.STUDYDAYS"
Role="Timing"
RoleCodeListOID="CodeList.rolecode"/>
<ItemRef ItemOID="IT.MH.STUDYID"
OrderNumber="1"
Mandatory="Yes"
KeySequence="1"
MethodOID="MT.STUDYID"
Role="Identifier"
RoleCodeListOID="CodeList.rolecode"/>
<ItemRef ItemOID="IT.MH.MHSCAT"
OrderNumber="9"
Mandatory="No"
Role="Grouping Qualifier"
RoleCodeListOID="CodeList.rolecode"/>
<ItemRef ItemOID="IT.MH.USUBJID"
OrderNumber="3"
Mandatory="Yes"
KeySequence="2"
MethodOID="MT.USUBJID"
Role="Identifier"
RoleCodeListOID="CodeList.rolecode"/>
 <!-- **************************************************** -->
      <!-- def:leaf details for hypertext linking the dataset   -->
      <!-- **************************************************** -->
<def:leaf ID="Location.MH" xlink:href="mh.xpt">
    <def:title>mh.xpt </def:title>
  </def:leaf>
</ItemGroupDef>
<!-- ******************************************* -->
<!-- OE             ItemGroupDef INFORMATION *** -->
<!-- ******************************************* -->
<ItemGroupDef OID="IG.OE"
Domain="OE"
Name="OE"
Repeating="Yes"
Purpose="Tabulation"
IsReferenceData="Yes"
SASDatasetName="OE"
def:Structure="One record per ophthalmic finding per method per location, per time point per visit per subject"
def:Class="Findings"
def:ArchiveLocationID="Location.OE">
<Description>
  <TranslatedText xml:lang="en">Opthalmic Examinations</TranslatedText>
</Description>
<ItemRef ItemOID="IT.OE.OEBLFL"
OrderNumber="17"
Mandatory="No"
Role="Record Qualifier"
RoleCodeListOID="CodeList.rolecode"/>
<ItemRef ItemOID="IT.OE.OECAT"
OrderNumber="8"
Mandatory="No"
Role="Grouping Qualifier"
RoleCodeListOID="CodeList.rolecode"/>
<ItemRef ItemOID="IT.OE.OESTRESC"
OrderNumber="12"
Mandatory="Yes"
Role="Result Qualifier"
RoleCodeListOID="CodeList.rolecode"/>
<ItemRef ItemOID="IT.OE.OEDTC"
OrderNumber="25"
Mandatory="Yes"
KeySequence="11"
MethodOID="MT.OE.OEDTC"
Role="Timing"
RoleCodeListOID="CodeList.rolecode"/>
<ItemRef ItemOID="IT.OE.OEDRVFL"
OrderNumber="18"
Mandatory="No"
MethodOID="MT.OE.OEDRVFL"
Role="Record Qualifier"
RoleCodeListOID="CodeList.rolecode"/>
<ItemRef ItemOID="IT.OE.DOMAIN"
OrderNumber="2"
Mandatory="Yes"
MethodOID="MT.SETDOMAIN"
Role="Identifier"
RoleCodeListOID="CodeList.rolecode"/>
<ItemRef ItemOID="IT.OE.EPOCH"
OrderNumber="24"
Mandatory="No"
MethodOID="MT.OE.EPOCH"
Role="Timing"
RoleCodeListOID="CodeList.rolecode"/>
<ItemRef ItemOID="IT.OE.OEGRPID"
OrderNumber="5"
Mandatory="No"
Role="Identifier"
RoleCodeListOID="CodeList.rolecode"/>
<ItemRef ItemOID="IT.OE.OELOBXFL"
OrderNumber="16"
Mandatory="Yes"
Role="Record Qualifier"
RoleCodeListOID="CodeList.rolecode"/>
<ItemRef ItemOID="IT.OE.OELAT"
OrderNumber="15"
Mandatory="Yes"
KeySequence="8"
Role="Variable Qualifier"
RoleCodeListOID="CodeList.rolecode"/>
<ItemRef ItemOID="IT.OE.OELOC"
OrderNumber="14"
Mandatory="Yes"
KeySequence="7"
Role="Record Qualifier"
RoleCodeListOID="CodeList.rolecode"/>
<ItemRef ItemOID="IT.OE.OETEST"
OrderNumber="7"
Mandatory="Yes"
Role="Synonym Qualifier"
RoleCodeListOID="CodeList.rolecode"/>
<ItemRef ItemOID="IT.OE.OEORRESU"
OrderNumber="11"
Mandatory="Yes"
Role="Variable Qualifier"
RoleCodeListOID="CodeList.rolecode"/>
<ItemRef ItemOID="IT.OE.TAETORD"
OrderNumber="23"
Mandatory="No"
Role="Timing"
RoleCodeListOID="CodeList.rolecode"/>
<ItemRef ItemOID="IT.OE.VISITDY"
OrderNumber="22"
Mandatory="No"
MethodOID="MT.OE.VISITDY"
Role="Timing"
RoleCodeListOID="CodeList.rolecode"/>
<ItemRef ItemOID="IT.OE.OEREPNUM"
OrderNumber="19"
Mandatory="No"
Role="Record Qualifier"
RoleCodeListOID="CodeList.rolecode"/>
<ItemRef ItemOID="IT.OE.OEORRES"
OrderNumber="10"
Mandatory="Yes"
Role="Result Qualifier"
RoleCodeListOID="CodeList.rolecode"/>
<ItemRef ItemOID="IT.OE.OESEQ"
OrderNumber="4"
Mandatory="Yes"
Role="Identifier"
RoleCodeListOID="CodeList.rolecode"/>
<ItemRef ItemOID="IT.OE.OETESTCD"
OrderNumber="6"
Mandatory="Yes"
KeySequence="4"
Role="Topic"
RoleCodeListOID="CodeList.rolecode"/>
<ItemRef ItemOID="IT.OE.OESTRESU"
OrderNumber="13"
Mandatory="Yes"
Role="Variable Qualifier"
RoleCodeListOID="CodeList.rolecode"/>
<ItemRef ItemOID="IT.OE.OEDY"
OrderNumber="26"
Mandatory="Yes"
MethodOID="MT.STUDYDAYS"
Role="Timing"
RoleCodeListOID="CodeList.rolecode"/>
<ItemRef ItemOID="IT.OE.STUDYID"
OrderNumber="1"
Mandatory="Yes"
KeySequence="1"
MethodOID="MT.STUDYID"
Role="Identifier"
RoleCodeListOID="CodeList.rolecode"/>
<ItemRef ItemOID="IT.OE.OESCAT"
OrderNumber="9"
Mandatory="No"
Role="Grouping Qualifier"
RoleCodeListOID="CodeList.rolecode"/>
<ItemRef ItemOID="IT.OE.USUBJID"
OrderNumber="3"
Mandatory="Yes"
KeySequence="2"
MethodOID="MT.USUBJID"
Role="Identifier"
RoleCodeListOID="CodeList.rolecode"/>
<ItemRef ItemOID="IT.OE.VISIT"
OrderNumber="21"
Mandatory="No"
MethodOID="MT.OE.VISIT"
Role="Timing"
RoleCodeListOID="CodeList.rolecode"/>
<ItemRef ItemOID="IT.OE.VISITNUM"
OrderNumber="20"
Mandatory="Yes"
KeySequence="10"
MethodOID="MT.OE.VISITNUM"
Role="Timing"
RoleCodeListOID="CodeList.rolecode"/>
 <!-- **************************************************** -->
      <!-- def:leaf details for hypertext linking the dataset   -->
      <!-- **************************************************** -->
<def:leaf ID="Location.OE" xlink:href="oe.xpt">
    <def:title>oe.xpt </def:title>
  </def:leaf>
</ItemGroupDef>
<!-- ******************************************* -->
<!-- QS             ItemGroupDef INFORMATION *** -->
<!-- ******************************************* -->
<ItemGroupDef OID="IG.QS"
Domain="QS"
Name="QS"
Repeating="Yes"
Purpose="Tabulation"
IsReferenceData="Yes"
SASDatasetName="QS"
def:Structure="One record per questionnaire per question per time point per visit per subject"
def:Class="Findings"
def:ArchiveLocationID="Location.QS">
<Description>
  <TranslatedText xml:lang="en">Questionnaires</TranslatedText>
</Description>
<ItemRef ItemOID="IT.QS.QSBLFL"
OrderNumber="14"
Mandatory="No"
Role="Record Qualifier"
RoleCodeListOID="CodeList.rolecode"/>
<ItemRef ItemOID="IT.QS.QSCAT"
OrderNumber="8"
Mandatory="Yes"
KeySequence="3"
Role="Grouping Qualifier"
RoleCodeListOID="CodeList.rolecode"/>
<ItemRef ItemOID="IT.QS.QSSTRESC"
OrderNumber="12"
Mandatory="Yes"
Role="Result Qualifier"
RoleCodeListOID="CodeList.rolecode"/>
<ItemRef ItemOID="IT.QS.QSDTC"
OrderNumber="21"
Mandatory="Yes"
MethodOID="MT.QS.QSDTC"
Role="Timing"
RoleCodeListOID="CodeList.rolecode"/>
<ItemRef ItemOID="IT.QS.QSDRVFL"
OrderNumber="15"
Mandatory="No"
MethodOID="MT.QS.QSDRVFL"
Role="Record Qualifier"
RoleCodeListOID="CodeList.rolecode"/>
<ItemRef ItemOID="IT.QS.DOMAIN"
OrderNumber="2"
Mandatory="Yes"
MethodOID="MT.SETDOMAIN"
Role="Identifier"
RoleCodeListOID="CodeList.rolecode"/>
<ItemRef ItemOID="IT.QS.EPOCH"
OrderNumber="20"
Mandatory="No"
MethodOID="MT.QS.EPOCH"
Role="Timing"
RoleCodeListOID="CodeList.rolecode"/>
<ItemRef ItemOID="IT.QS.QSORRES"
OrderNumber="10"
Mandatory="Yes"
Role="Result Qualifier"
RoleCodeListOID="CodeList.rolecode"/>
<ItemRef ItemOID="IT.QS.QSGRPID"
OrderNumber="5"
Mandatory="No"
Role="Identifier"
RoleCodeListOID="CodeList.rolecode"/>
<ItemRef ItemOID="IT.QS.QSSTRESN"
OrderNumber="13"
Mandatory="No"
Role="Result Qualifier"
RoleCodeListOID="CodeList.rolecode"/>
<ItemRef ItemOID="IT.QS.QSORRESU"
OrderNumber="11"
Mandatory="No"
Role="Variable Qualifier"
RoleCodeListOID="CodeList.rolecode"/>
<ItemRef ItemOID="IT.QS.TAETORD"
OrderNumber="19"
Mandatory="No"
MethodOID="MT.QS.TAETORD"
Role="Timing"
RoleCodeListOID="CodeList.rolecode"/>
<ItemRef ItemOID="IT.QS.VISITDY"
OrderNumber="18"
Mandatory="No"
MethodOID="MT.QS.VISITDY"
Role="Timing"
RoleCodeListOID="CodeList.rolecode"/>
<ItemRef ItemOID="IT.QS.QSTEST"
OrderNumber="7"
Mandatory="Yes"
Role="Synonym Qualifier"
RoleCodeListOID="CodeList.rolecode"/>
<ItemRef ItemOID="IT.QS.QSTESTCD"
OrderNumber="6"
Mandatory="Yes"
KeySequence="6"
Role="Topic"
RoleCodeListOID="CodeList.rolecode"/>
<ItemRef ItemOID="IT.QS.QSSEQ"
OrderNumber="4"
Mandatory="Yes"
Role="Identifier"
RoleCodeListOID="CodeList.rolecode"/>
<ItemRef ItemOID="IT.QS.QSDY"
OrderNumber="22"
Mandatory="No"
MethodOID="MT.STUDYDAYS"
Role="Timing"
RoleCodeListOID="CodeList.rolecode"/>
<ItemRef ItemOID="IT.QS.STUDYID"
OrderNumber="1"
Mandatory="Yes"
KeySequence="1"
MethodOID="MT.STUDYID"
Role="Identifier"
RoleCodeListOID="CodeList.rolecode"/>
<ItemRef ItemOID="IT.QS.QSSCAT"
OrderNumber="9"
Mandatory="No"
KeySequence="4"
Role="Grouping Qualifier"
RoleCodeListOID="CodeList.rolecode"/>
<ItemRef ItemOID="IT.QS.USUBJID"
OrderNumber="3"
Mandatory="Yes"
KeySequence="2"
MethodOID="MT.USUBJID"
Role="Identifier"
RoleCodeListOID="CodeList.rolecode"/>
<ItemRef ItemOID="IT.QS.VISIT"
OrderNumber="17"
Mandatory="No"
MethodOID="MT.QS.VISIT"
Role="Timing"
RoleCodeListOID="CodeList.rolecode"/>
<ItemRef ItemOID="IT.QS.VISITNUM"
OrderNumber="16"
Mandatory="Yes"
KeySequence="5"
MethodOID="MT.QS.VISITNUM"
Role="Timing"
RoleCodeListOID="CodeList.rolecode"/>
